participant_id,participant_ts,age,gender,handedness,native_language,other_languages,french_level,french_years,french_listening_rating,hearing_difficulties,device,saved_at,trial,speaker,file_A,file_B,word_A,word_B,response,rt_ms,,,,,,,,
P_1777109938768,2026-04-25T09:38:58.768Z,23,Male,Right-handed,English,Irish,None,0,1,No,Speakers,2026-04-25T09:46:50.882Z,1,homme,enregistrements_homme/clean\31_ket_20260421_195604.wav,enregistrements_homme/clean\31_ket_20260421_195604.wav,ket,ket,same,1138,,,,,,,,
P_1777109938768,2026-04-25T09:38:58.768Z,23,Male,Right-handed,English,Irish,None,0,1,No,Speakers,2026-04-25T09:46:50.882Z,2,homme,enregistrements_homme/clean\21_pat_20260421_195550.wav,enregistrements_homme/clean\21_pat_20260421_195550.wav,pat,pat,same,1037,,,,,,,,
P_1777109938768,2026-04-25T09:38:58.768Z,23,Male,Right-handed,English,Irish,None,0,1,No,Speakers,2026-04-25T09:46:50.882Z,3,femme,enregistrements_femme/clean_denoised\6_tant_20260422_181747.wav,enregistrements_femme/clean_denoised\8_tont_20260422_181810.wav,tant,tont,different,904,,,,,,,,
P_1777109938768,2026-04-25T09:38:58.768Z,23,Male,Right-handed,English,Irish,None,0,1,No,Speakers,2026-04-25T09:46:50.882Z,4,homme,enregistrements_homme/clean\25_tet_20260421_195555.wav,enregistrements_homme/clean\25_tet_20260421_195555.wav,tet,tet,same,756,,,,,,,,
P_1777109938768,2026-04-25T09:38:58.768Z,23,Male,Right-handed,English,Irish,None,0,1,No,Speakers,2026-04-25T09:46:50.882Z,5,femme,enregistrements_femme/clean_denoised\12_kant_20260422_181817.wav,enregistrements_femme/clean_denoised\14_kont_20260422_181821.wav,kant,kont,same,6513,,,,,,,,
P_1777109938768,2026-04-25T09:38:58.768Z,23,Male,Right-handed,English,Irish,None,0,1,No,Speakers,2026-04-25T09:46:50.882Z,6,homme,enregistrements_homme/clean\19_bet_20260421_195546.wav,enregistrements_homme/clean\20_bot_20260421_195548.wav,bet,bot,different,2084,,,,,,,,
P_1777109938768,2026-04-25T09:38:58.768Z,23,Male,Right-handed,English,Irish,None,0,1,No,Speakers,2026-04-25T09:46:50.882Z,7,femme,enregistrements_femme/clean_denoised\6_tant_20260422_181747.wav,enregistrements_femme/clean_denoised\6_tant_20260422_181747.wav,tant,tant,same,12178,,,,,,,,
P_1777109938768,2026-04-25T09:38:58.768Z,23,Male,Right-handed,English,Irish,None,0,1,No,Speakers,2026-04-25T09:46:50.882Z,8,femme,enregistrements_femme/clean_denoised\33_gat_20260422_181851.wav,enregistrements_femme/clean_denoised\35_got_20260422_181854.wav,gat,got,different,387,,,,,,,,
P_1777109938768,2026-04-25T09:38:58.768Z,23,Male,Right-handed,English,Irish,None,0,1,No,Speakers,2026-04-25T09:46:50.882Z,9,homme,enregistrements_homme/clean\1_bunt_20260421_195516.wav,enregistrements_homme/clean\2_bont_20260421_195518.wav,bunt,bont,different,589,,,,,,,,
P_1777109938768,2026-04-25T09:38:58.768Z,23,Male,Right-handed,English,Irish,None,0,1,No,Speakers,2026-04-25T09:46:50.882Z,10,homme,enregistrements_homme/clean\15_gant_20260421_195539.wav,enregistrements_homme/clean\15_gant_20260421_195539.wav,gant,gant,same,597,,,,,,,,
P_1777109938768,2026-04-25T09:38:58.768Z,23,Male,Right-handed,English,Irish,None,0,1,No,Speakers,2026-04-25T09:46:50.882Z,11,homme,enregistrements_homme/clean\4_punt_20260421_195521.wav,enregistrements_homme/clean\5_pont_20260421_195523.wav,punt,pont,different,704,,,,,,,,
P_1777109938768,2026-04-25T09:38:58.768Z,23,Male,Right-handed,English,Irish,None,0,1,No,Speakers,2026-04-25T09:46:50.882Z,12,homme,enregistrements_homme/clean\13_kunt_20260421_195536.wav,enregistrements_homme/clean\13_kunt_20260421_195536.wav,kunt,kunt,same,572,,,,,,,,
P_1777109938768,2026-04-25T09:38:58.768Z,23,Male,Right-handed,English,Irish,None,0,1,No,Speakers,2026-04-25T09:46:50.882Z,13,homme,enregistrements_homme/clean\23_pot_20260421_195552.wav,enregistrements_homme/clean\23_pot_20260421_195552.wav,pot,pot,same,666,,,,,,,,
P_1777109938768,2026-04-25T09:38:58.768Z,23,Male,Right-handed,English,Irish,None,0,1,No,Speakers,2026-04-25T09:46:50.882Z,14,homme,enregistrements_homme/clean\34_get_20260421_195609.wav,enregistrements_homme/clean\35_got_20260421_195610.wav,get,got,different,521,,,,,,,,
P_1777109938768,2026-04-25T09:38:58.768Z,23,Male,Right-handed,English,Irish,None,0,1,No,Speakers,2026-04-25T09:46:50.882Z,15,femme,enregistrements_femme/clean_denoised\24_tat_20260422_181837.wav,enregistrements_femme/clean_denoised\24_tat_20260422_181837.wav,tat,tat,same,705,,,,,,,,
P_1777109938768,2026-04-25T09:38:58.768Z,23,Male,Right-handed,English,Irish,None,0,1,No,Speakers,2026-04-25T09:46:50.882Z,16,homme,enregistrements_homme/clean\30_kat_20260421_195603.wav,enregistrements_homme/clean\30_kat_20260421_195603.wav,kat,kat,same,521,,,,,,,,
P_1777109938768,2026-04-25T09:38:58.768Z,23,Male,Right-handed,English,Irish,None,0,1,No,Speakers,2026-04-25T09:46:50.882Z,17,homme,enregistrements_homme/clean\27_dat_20260421_195558.wav,enregistrements_homme/clean\27_dat_20260421_195558.wav,dat,dat,same,933,,,,,,,,?
P_1777109938768,2026-04-25T09:38:58.768Z,23,Male,Right-handed,English,Irish,None,0,1,No,Speakers,2026-04-25T09:46:50.882Z,18,homme,enregistrements_homme/clean\6_tant_20260421_195524.wav,enregistrements_homme/clean\8_tont_20260421_195527.wav,tant,tont,same,503,,,,,,,,
P_1777109938768,2026-04-25T09:38:58.768Z,23,Male,Right-handed,English,Irish,None,0,1,No,Speakers,2026-04-25T09:46:50.882Z,19,homme,enregistrements_homme/clean\28_det_20260421_195600.wav,enregistrements_homme/clean\28_det_20260421_195600.wav,det,det,same,2436,,,,,,,,
P_1777109938768,2026-04-25T09:38:58.768Z,23,Male,Right-handed,English,Irish,None,0,1,No,Speakers,2026-04-25T09:46:50.882Z,20,homme,enregistrements_homme/clean\24_tat_20260421_195554.wav,enregistrements_homme/clean\26_tot_20260421_195557.wav,tat,tot,different,747,,,,,,,,
P_1777109938768,2026-04-25T09:38:58.768Z,23,Male,Right-handed,English,Irish,None,0,1,No,Speakers,2026-04-25T09:46:50.882Z,21,homme,enregistrements_homme/clean\18_bat_20260421_195545.wav,enregistrements_homme/clean\19_bet_20260421_195546.wav,bat,bet,different,1214,,,,,,,,
P_1777109938768,2026-04-25T09:38:58.768Z,23,Male,Right-handed,English,Irish,None,0,1,No,Speakers,2026-04-25T09:46:50.882Z,22,femme,enregistrements_femme/clean_denoised\18_bat_20260422_181828.wav,enregistrements_femme/clean_denoised\18_bat_20260422_181828.wav,bat,bat,same,610,,,,,,,,
P_1777109938768,2026-04-25T09:38:58.768Z,23,Male,Right-handed,English,Irish,None,0,1,No,Speakers,2026-04-25T09:46:50.882Z,23,femme,enregistrements_femme/clean_denoised\11_dont_20260422_181816.wav,enregistrements_femme/clean_denoised\11_dont_20260422_181816.wav,dont,dont,same,567,,,,,,,,
P_1777109938768,2026-04-25T09:38:58.768Z,23,Male,Right-handed,English,Irish,None,0,1,No,Speakers,2026-04-25T09:46:50.882Z,24,femme,enregistrements_femme/clean_denoised\3_pant_20260422_181741.wav,enregistrements_femme/clean_denoised\3_pant_20260422_181741.wav,pant,pant,same,536,,,,,,,,
P_1777109938768,2026-04-25T09:38:58.768Z,23,Male,Right-handed,English,Irish,None,0,1,No,Speakers,2026-04-25T09:46:50.882Z,25,femme,enregistrements_femme/clean_denoised\24_tat_20260422_181837.wav,enregistrements_femme/clean_denoised\25_tet_20260422_181839.wav,tat,tet,different,502,,,,,,,,
P_1777109938768,2026-04-25T09:38:58.768Z,23,Male,Right-handed,English,Irish,None,0,1,No,Speakers,2026-04-25T09:46:50.882Z,26,femme,enregistrements_femme/clean_denoised\32_kot_20260422_181850.wav,enregistrements_femme/clean_denoised\32_kot_20260422_181850.wav,kot,kot,same,997,,,,,,,,
P_1777109938768,2026-04-25T09:38:58.768Z,23,Male,Right-handed,English,Irish,None,0,1,No,Speakers,2026-04-25T09:46:50.882Z,27,femme,enregistrements_femme/clean_denoised\7_tunt_20260422_181809.wav,enregistrements_femme/clean_denoised\8_tont_20260422_181810.wav,tunt,tont,different,2084,,,,,,,,
P_1777109938768,2026-04-25T09:38:58.768Z,23,Male,Right-handed,English,Irish,None,0,1,No,Speakers,2026-04-25T09:46:50.882Z,28,homme,enregistrements_homme/clean\30_kat_20260421_195603.wav,enregistrements_homme/clean\32_kot_20260421_195606.wav,kat,kot,different,2127,,,,,,,,
P_1777109938768,2026-04-25T09:38:58.768Z,23,Male,Right-handed,English,Irish,None,0,1,No,Speakers,2026-04-25T09:46:50.882Z,29,homme,enregistrements_homme/clean\27_dat_20260421_195558.wav,enregistrements_homme/clean\29_dot_20260421_195601.wav,dat,dot,different,902,,,,,,,,
P_1777109938768,2026-04-25T09:38:58.768Z,23,Male,Right-handed,English,Irish,None,0,1,No,Speakers,2026-04-25T09:46:50.882Z,30,homme,enregistrements_homme/clean\19_bet_20260421_195546.wav,enregistrements_homme/clean\19_bet_20260421_195546.wav,bet,bet,same,842,,,,,,,,
P_1777109938768,2026-04-25T09:38:58.768Z,23,Male,Right-handed,English,Irish,None,0,1,No,Speakers,2026-04-25T09:46:50.882Z,31,femme,enregistrements_femme/clean_denoised\19_bet_20260422_181829.wav,enregistrements_femme/clean_denoised\19_bet_20260422_181829.wav,bet,bet,same,440,,,,,,,,
P_1777109938768,2026-04-25T09:38:58.768Z,23,Male,Right-handed,English,Irish,None,0,1,No,Speakers,2026-04-25T09:46:50.882Z,32,homme,enregistrements_homme/clean\18_bat_20260421_195545.wav,enregistrements_homme/clean\20_bot_20260421_195548.wav,bat,bot,different,874,,,,,,,,
P_1777109938768,2026-04-25T09:38:58.768Z,23,Male,Right-handed,English,Irish,None,0,1,No,Speakers,2026-04-25T09:46:50.882Z,33,femme,enregistrements_femme/clean_denoised\23_pot_20260422_181836.wav,enregistrements_femme/clean_denoised\23_pot_20260422_181836.wav,pot,pot,same,611,,,,,,,,
P_1777109938768,2026-04-25T09:38:58.768Z,23,Male,Right-handed,English,Irish,None,0,1,No,Speakers,2026-04-25T09:46:50.882Z,34,femme,enregistrements_femme/clean_denoised\6_tant_20260422_181747.wav,enregistrements_femme/clean_denoised\7_tunt_20260422_181809.wav,tant,tunt,different,623,,,,,,,,
P_1777109938768,2026-04-25T09:38:58.768Z,23,Male,Right-handed,English,Irish,None,0,1,No,Speakers,2026-04-25T09:46:50.882Z,35,femme,enregistrements_femme/clean_denoised\16_gunt_20260422_181824.wav,enregistrements_femme/clean_denoised\17_gont_20260422_181826.wav,gunt,gont,different,1742,,,,,,,,
P_1777109938768,2026-04-25T09:38:58.768Z,23,Male,Right-handed,English,Irish,None,0,1,No,Speakers,2026-04-25T09:46:50.882Z,36,femme,enregistrements_femme/clean_denoised\30_kat_20260422_181847.wav,enregistrements_femme/clean_denoised\30_kat_20260422_181847.wav,kat,kat,same,939,,,,,,,,
P_1777109938768,2026-04-25T09:38:58.768Z,23,Male,Right-handed,English,Irish,None,0,1,No,Speakers,2026-04-25T09:46:50.882Z,37,homme,enregistrements_homme/clean\10_dunt_20260421_195531.wav,enregistrements_homme/clean\9_dant_20260421_195529.wav,dunt,dant,different,626,,,,,,,,
P_1777109938768,2026-04-25T09:38:58.768Z,23,Male,Right-handed,English,Irish,None,0,1,No,Speakers,2026-04-25T09:46:50.882Z,38,homme,enregistrements_homme/clean\22_pet_20260421_195551.wav,enregistrements_homme/clean\23_pot_20260421_195552.wav,pet,pot,different,868,,,,,,,,
P_1777109938768,2026-04-25T09:38:58.768Z,23,Male,Right-handed,English,Irish,None,0,1,No,Speakers,2026-04-25T09:46:50.882Z,39,homme,enregistrements_homme/clean\9_dant_20260421_195529.wav,enregistrements_homme/clean\9_dant_20260421_195529.wav,dant,dant,same,694,,,,,,,,
P_1777109938768,2026-04-25T09:38:58.768Z,23,Male,Right-handed,English,Irish,None,0,1,No,Speakers,2026-04-25T09:46:50.882Z,40,homme,enregistrements_homme/clean\26_tot_20260421_195557.wav,enregistrements_homme/clean\26_tot_20260421_195557.wav,tot,tot,same,637,,,,,,,,
P_1777109938768,2026-04-25T09:38:58.768Z,23,Male,Right-handed,English,Irish,None,0,1,No,Speakers,2026-04-25T09:46:50.882Z,41,homme,enregistrements_homme/clean\6_tant_20260421_195524.wav,enregistrements_homme/clean\6_tant_20260421_195524.wav,tant,tant,same,542,,,,,,,,
P_1777109938768,2026-04-25T09:38:58.768Z,23,Male,Right-handed,English,Irish,None,0,1,No,Speakers,2026-04-25T09:46:50.882Z,42,homme,enregistrements_homme/clean\15_gant_20260421_195539.wav,enregistrements_homme/clean\17_gont_20260421_195543.wav,gant,gont,different,753,,,,,,,,
P_1777109938768,2026-04-25T09:38:58.768Z,23,Male,Right-handed,English,Irish,None,0,1,No,Speakers,2026-04-25T09:46:50.882Z,43,homme,enregistrements_homme/clean\16_gunt_20260421_195541.wav,enregistrements_homme/clean\16_gunt_20260421_195541.wav,gunt,gunt,same,701,,,,,,,,
P_1777109938768,2026-04-25T09:38:58.768Z,23,Male,Right-handed,English,Irish,None,0,1,No,Speakers,2026-04-25T09:46:50.882Z,44,femme,enregistrements_femme/clean_denoised\4_punt_20260422_181742.wav,enregistrements_femme/clean_denoised\5_pont_20260422_181744.wav,punt,pont,different,491,,,,,,,,
P_1777109938768,2026-04-25T09:38:58.768Z,23,Male,Right-handed,English,Irish,None,0,1,No,Speakers,2026-04-25T09:46:50.882Z,45,femme,enregistrements_femme/clean_denoised\1_bunt_20260422_181737.wav,enregistrements_femme/clean_denoised\2_bont_20260422_181739.wav,bunt,bont,different,533,,,,,,,,
P_1777109938768,2026-04-25T09:38:58.768Z,23,Male,Right-handed,English,Irish,None,0,1,No,Speakers,2026-04-25T09:46:50.882Z,46,homme,enregistrements_homme/clean\12_kant_20260421_195534.wav,enregistrements_homme/clean\14_kont_20260421_195538.wav,kant,kont,different,616,,,,,,,,
P_1777109938768,2026-04-25T09:38:58.768Z,23,Male,Right-handed,English,Irish,None,0,1,No,Speakers,2026-04-25T09:46:50.882Z,47,femme,enregistrements_femme/clean_denoised\15_gant_20260422_181822.wav,enregistrements_femme/clean_denoised\17_gont_20260422_181826.wav,gant,gont,same,802,,,,,,,,
P_1777109938768,2026-04-25T09:38:58.768Z,23,Male,Right-handed,English,Irish,None,0,1,No,Speakers,2026-04-25T09:46:50.882Z,48,femme,enregistrements_femme/clean_denoised\35_got_20260422_181854.wav,enregistrements_femme/clean_denoised\35_got_20260422_181854.wav,got,got,same,450,,,,,,,,
P_1777109938768,2026-04-25T09:38:58.768Z,23,Male,Right-handed,English,Irish,None,0,1,No,Speakers,2026-04-25T09:46:50.882Z,49,homme,enregistrements_homme/clean\16_gunt_20260421_195541.wav,enregistrements_homme/clean\17_gont_20260421_195543.wav,gunt,gont,different,698,,,,,,,,
P_1777109938768,2026-04-25T09:38:58.768Z,23,Male,Right-handed,English,Irish,None,0,1,No,Speakers,2026-04-25T09:46:50.882Z,50,femme,enregistrements_femme/clean_denoised\12_kant_20260422_181817.wav,enregistrements_femme/clean_denoised\12_kant_20260422_181817.wav,kant,kant,same,573,,,,,,,,
P_1777109938768,2026-04-25T09:38:58.768Z,23,Male,Right-handed,English,Irish,None,0,1,No,Speakers,2026-04-25T09:46:50.882Z,51,homme,enregistrements_homme/clean\5_pont_20260421_195523.wav,enregistrements_homme/clean\5_pont_20260421_195523.wav,pont,pont,same,572,,,,,,,,
P_1777109938768,2026-04-25T09:38:58.768Z,23,Male,Right-handed,English,Irish,None,0,1,No,Speakers,2026-04-25T09:46:50.882Z,52,homme,enregistrements_homme/clean\8_tont_20260421_195527.wav,enregistrements_homme/clean\8_tont_20260421_195527.wav,tont,tont,same,555,,,,,,,,
P_1777109938768,2026-04-25T09:38:58.768Z,23,Male,Right-handed,English,Irish,None,0,1,No,Speakers,2026-04-25T09:46:50.882Z,53,femme,enregistrements_femme/clean_denoised\20_bot_20260422_181831.wav,enregistrements_femme/clean_denoised\20_bot_20260422_181831.wav,bot,bot,same,547,,,,,,,,
P_1777109938768,2026-04-25T09:38:58.768Z,23,Male,Right-handed,English,Irish,None,0,1,No,Speakers,2026-04-25T09:46:50.882Z,54,homme,enregistrements_homme/clean\3_pant_20260421_195520.wav,enregistrements_homme/clean\5_pont_20260421_195523.wav,pant,pont,same,785,,,,,,,,
P_1777109938768,2026-04-25T09:38:58.768Z,23,Male,Right-handed,English,Irish,None,0,1,No,Speakers,2026-04-25T09:46:50.882Z,55,femme,enregistrements_femme/clean_denoised\24_tat_20260422_181837.wav,enregistrements_femme/clean_denoised\26_tot_20260422_181840.wav,tat,tot,different,551,,,,,,,,
P_1777109938768,2026-04-25T09:38:58.768Z,23,Male,Right-handed,English,Irish,None,0,1,No,Speakers,2026-04-25T09:46:50.882Z,56,homme,enregistrements_homme/clean\13_kunt_20260421_195536.wav,enregistrements_homme/clean\14_kont_20260421_195538.wav,kunt,kont,different,564,,,,,,,,
P_1777109938768,2026-04-25T09:38:58.768Z,23,Male,Right-handed,English,Irish,None,0,1,No,Speakers,2026-04-25T09:46:50.882Z,57,femme,enregistrements_femme/clean_denoised\11_dont_20260422_181816.wav,enregistrements_femme/clean_denoised\9_dant_20260422_181812.wav,dont,dant,different,830,,,,,,,,
P_1777109938768,2026-04-25T09:38:58.768Z,23,Male,Right-handed,English,Irish,None,0,1,No,Speakers,2026-04-25T09:46:50.882Z,58,femme,enregistrements_femme/clean_denoised\34_get_20260422_181853.wav,enregistrements_femme/clean_denoised\35_got_20260422_181854.wav,get,got,different,538,,,,,,,,
P_1777109938768,2026-04-25T09:38:58.768Z,23,Male,Right-handed,English,Irish,None,0,1,No,Speakers,2026-04-25T09:46:50.882Z,59,femme,enregistrements_femme/clean_denoised\21_pat_20260422_181832.wav,enregistrements_femme/clean_denoised\23_pot_20260422_181836.wav,pat,pot,different,504,,,,,,,,
P_1777109938768,2026-04-25T09:38:58.768Z,23,Male,Right-handed,English,Irish,None,0,1,No,Speakers,2026-04-25T09:46:50.882Z,60,homme,enregistrements_homme/clean\2_bont_20260421_195518.wav,enregistrements_homme/clean\2_bont_20260421_195518.wav,bont,bont,same,523,,,,,,,,
P_1777109938768,2026-04-25T09:38:58.768Z,23,Male,Right-handed,English,Irish,None,0,1,No,Speakers,2026-04-25T09:46:50.882Z,61,homme,enregistrements_homme/clean\1_bunt_20260421_195516.wav,enregistrements_homme/clean\1_bunt_20260421_195516.wav,bunt,bunt,same,636,,,,,,,,
P_1777109938768,2026-04-25T09:38:58.768Z,23,Male,Right-handed,English,Irish,None,0,1,No,Speakers,2026-04-25T09:46:50.882Z,62,femme,enregistrements_femme/clean_denoised\3_pant_20260422_181741.wav,enregistrements_femme/clean_denoised\4_punt_20260422_181742.wav,pant,punt,different,1430,,,,,,,,
P_1777109938768,2026-04-25T09:38:58.768Z,23,Male,Right-handed,English,Irish,None,0,1,No,Speakers,2026-04-25T09:46:50.882Z,63,homme,enregistrements_homme/clean\6_tant_20260421_195524.wav,enregistrements_homme/clean\7_tunt_20260421_195526.wav,tant,tunt,different,742,,,,,,,,
P_1777109938768,2026-04-25T09:38:58.768Z,23,Male,Right-handed,English,Irish,None,0,1,No,Speakers,2026-04-25T09:46:50.882Z,64,homme,enregistrements_homme/clean\33_gat_20260421_195607.wav,enregistrements_homme/clean\35_got_20260421_195610.wav,gat,got,different,557,,,,,,,,
P_1777109938768,2026-04-25T09:38:58.768Z,23,Male,Right-handed,English,Irish,None,0,1,No,Speakers,2026-04-25T09:46:50.882Z,65,femme,enregistrements_femme/clean_denoised\19_bet_20260422_181829.wav,enregistrements_femme/clean_denoised\20_bot_20260422_181831.wav,bet,bot,different,941,,,,,,,,
P_1777109938768,2026-04-25T09:38:58.768Z,23,Male,Right-handed,English,Irish,None,0,1,No,Speakers,2026-04-25T09:46:50.882Z,66,femme,enregistrements_femme/clean_denoised\15_gant_20260422_181822.wav,enregistrements_femme/clean_denoised\16_gunt_20260422_181824.wav,gant,gunt,different,1366,,,,,,,,
P_1777109938768,2026-04-25T09:38:58.768Z,23,Male,Right-handed,English,Irish,None,0,1,No,Speakers,2026-04-25T09:46:50.882Z,67,homme,enregistrements_homme/clean\29_dot_20260421_195601.wav,enregistrements_homme/clean\29_dot_20260421_195601.wav,dot,dot,same,765,,,,,,,,
P_1777109938768,2026-04-25T09:38:58.768Z,23,Male,Right-handed,English,Irish,None,0,1,No,Speakers,2026-04-25T09:46:50.882Z,68,homme,enregistrements_homme/clean\0_bant_20260421_195515.wav,enregistrements_homme/clean\0_bant_20260421_195515.wav,bant,bant,same,691,,,,,,,,
P_1777109938768,2026-04-25T09:38:58.768Z,23,Male,Right-handed,English,Irish,None,0,1,No,Speakers,2026-04-25T09:46:50.882Z,69,homme,enregistrements_homme/clean\24_tat_20260421_195554.wav,enregistrements_homme/clean\25_tet_20260421_195555.wav,tat,tet,different,578,,,,,,,,
P_1777109938768,2026-04-25T09:38:58.768Z,23,Male,Right-handed,English,Irish,None,0,1,No,Speakers,2026-04-25T09:46:50.882Z,70,homme,enregistrements_homme/clean\25_tet_20260421_195555.wav,enregistrements_homme/clean\26_tot_20260421_195557.wav,tet,tot,different,902,,,,,,,,
P_1777109938768,2026-04-25T09:38:58.768Z,23,Male,Right-handed,English,Irish,None,0,1,No,Speakers,2026-04-25T09:46:50.882Z,71,femme,enregistrements_femme/clean_denoised\17_gont_20260422_181826.wav,enregistrements_femme/clean_denoised\17_gont_20260422_181826.wav,gont,gont,same,928,,,,,,,,
P_1777109938768,2026-04-25T09:38:58.768Z,23,Male,Right-handed,English,Irish,None,0,1,No,Speakers,2026-04-25T09:46:50.882Z,72,femme,enregistrements_femme/clean_denoised\4_punt_20260422_181742.wav,enregistrements_femme/clean_denoised\4_punt_20260422_181742.wav,punt,punt,same,584,,,,,,,,
P_1777109938768,2026-04-25T09:38:58.768Z,23,Male,Right-handed,English,Irish,None,0,1,No,Speakers,2026-04-25T09:46:50.882Z,73,femme,enregistrements_femme/clean_denoised\12_kant_20260422_181817.wav,enregistrements_femme/clean_denoised\13_kunt_20260422_181819.wav,kant,kunt,same,615,,,,,,,,
P_1777109938768,2026-04-25T09:38:58.768Z,23,Male,Right-handed,English,Irish,None,0,1,No,Speakers,2026-04-25T09:46:50.882Z,74,homme,enregistrements_homme/clean\17_gont_20260421_195543.wav,enregistrements_homme/clean\17_gont_20260421_195543.wav,gont,gont,same,1491,,,,,,,,
P_1777109938768,2026-04-25T09:38:58.768Z,23,Male,Right-handed,English,Irish,None,0,1,No,Speakers,2026-04-25T09:46:50.882Z,75,femme,enregistrements_femme/clean_denoised\31_ket_20260422_181848.wav,enregistrements_femme/clean_denoised\32_kot_20260422_181850.wav,ket,kot,different,448,,,,,,,,
P_1777109938768,2026-04-25T09:38:58.768Z,23,Male,Right-handed,English,Irish,None,0,1,No,Speakers,2026-04-25T09:46:50.882Z,76,homme,enregistrements_homme/clean\10_dunt_20260421_195531.wav,enregistrements_homme/clean\11_dont_20260421_195532.wav,dunt,dont,different,2760,,,,,,,,
P_1777109938768,2026-04-25T09:38:58.768Z,23,Male,Right-handed,English,Irish,None,0,1,No,Speakers,2026-04-25T09:46:50.882Z,77,homme,enregistrements_homme/clean\0_bant_20260421_195515.wav,enregistrements_homme/clean\1_bunt_20260421_195516.wav,bant,bunt,different,1083,,,,,,,,
P_1777109938768,2026-04-25T09:38:58.768Z,23,Male,Right-handed,English,Irish,None,0,1,No,Speakers,2026-04-25T09:46:50.882Z,78,homme,enregistrements_homme/clean\33_gat_20260421_195607.wav,enregistrements_homme/clean\34_get_20260421_195609.wav,gat,get,different,928,,,,,,,,
P_1777109938768,2026-04-25T09:38:58.768Z,23,Male,Right-handed,English,Irish,None,0,1,No,Speakers,2026-04-25T09:46:50.882Z,79,homme,enregistrements_homme/clean\10_dunt_20260421_195531.wav,enregistrements_homme/clean\10_dunt_20260421_195531.wav,dunt,dunt,same,622,,,,,,,,
P_1777109938768,2026-04-25T09:38:58.768Z,23,Male,Right-handed,English,Irish,None,0,1,No,Speakers,2026-04-25T09:46:50.882Z,80,femme,enregistrements_femme/clean_denoised\28_det_20260422_181844.wav,enregistrements_femme/clean_denoised\28_det_20260422_181844.wav,det,det,same,435,,,,,,,,
P_1777109938768,2026-04-25T09:38:58.768Z,23,Male,Right-handed,English,Irish,None,0,1,No,Speakers,2026-04-25T09:46:50.882Z,81,femme,enregistrements_femme/clean_denoised\33_gat_20260422_181851.wav,enregistrements_femme/clean_denoised\33_gat_20260422_181851.wav,gat,gat,same,2475,,,,,,,,
P_1777109938768,2026-04-25T09:38:58.768Z,23,Male,Right-handed,English,Irish,None,0,1,No,Speakers,2026-04-25T09:46:50.882Z,82,femme,enregistrements_femme/clean_denoised\10_dunt_20260422_181814.wav,enregistrements_femme/clean_denoised\10_dunt_20260422_181814.wav,dunt,dunt,same,621,,,,,,,,
P_1777109938768,2026-04-25T09:38:58.768Z,23,Male,Right-handed,English,Irish,None,0,1,No,Speakers,2026-04-25T09:46:50.882Z,83,femme,enregistrements_femme/clean_denoised\27_dat_20260422_181842.wav,enregistrements_femme/clean_denoised\27_dat_20260422_181842.wav,dat,dat,same,584,,,,,,,,
P_1777109938768,2026-04-25T09:38:58.768Z,23,Male,Right-handed,English,Irish,None,0,1,No,Speakers,2026-04-25T09:46:50.882Z,84,homme,enregistrements_homme/clean\11_dont_20260421_195532.wav,enregistrements_homme/clean\9_dant_20260421_195529.wav,dont,dant,different,560,,,,,,,,
P_1777109938768,2026-04-25T09:38:58.768Z,23,Male,Right-handed,English,Irish,None,0,1,No,Speakers,2026-04-25T09:46:50.882Z,85,femme,enregistrements_femme/clean_denoised\18_bat_20260422_181828.wav,enregistrements_femme/clean_denoised\19_bet_20260422_181829.wav,bat,bet,different,419,,,,,,,,
P_1777109938768,2026-04-25T09:38:58.768Z,23,Male,Right-handed,English,Irish,None,0,1,No,Speakers,2026-04-25T09:46:50.882Z,86,homme,enregistrements_homme/clean\4_punt_20260421_195521.wav,enregistrements_homme/clean\4_punt_20260421_195521.wav,punt,punt,same,712,,,,,,,,
P_1777109938768,2026-04-25T09:38:58.768Z,23,Male,Right-handed,English,Irish,None,0,1,No,Speakers,2026-04-25T09:46:50.882Z,87,homme,enregistrements_homme/clean\35_got_20260421_195610.wav,enregistrements_homme/clean\35_got_20260421_195610.wav,got,got,same,1234,,,,,,,,
P_1777109938768,2026-04-25T09:38:58.768Z,23,Male,Right-handed,English,Irish,None,0,1,No,Speakers,2026-04-25T09:46:50.882Z,88,homme,enregistrements_homme/clean\34_get_20260421_195609.wav,enregistrements_homme/clean\34_get_20260421_195609.wav,get,get,same,744,,,,,,,,
P_1777109938768,2026-04-25T09:38:58.768Z,23,Male,Right-handed,English,Irish,None,0,1,No,Speakers,2026-04-25T09:46:50.882Z,89,femme,enregistrements_femme/clean_denoised\16_gunt_20260422_181824.wav,enregistrements_femme/clean_denoised\16_gunt_20260422_181824.wav,gunt,gunt,same,553,,,,,,,,
P_1777109938768,2026-04-25T09:38:58.768Z,23,Male,Right-handed,English,Irish,None,0,1,No,Speakers,2026-04-25T09:46:50.882Z,90,femme,enregistrements_femme/clean_denoised\3_pant_20260422_181741.wav,enregistrements_femme/clean_denoised\5_pont_20260422_181744.wav,pant,pont,different,453,,,,,,,,
P_1777109938768,2026-04-25T09:38:58.768Z,23,Male,Right-handed,English,Irish,None,0,1,No,Speakers,2026-04-25T09:46:50.882Z,91,homme,enregistrements_homme/clean\21_pat_20260421_195550.wav,enregistrements_homme/clean\22_pet_20260421_195551.wav,pat,pet,different,832,,,,,,,,
P_1777109938768,2026-04-25T09:38:58.768Z,23,Male,Right-handed,English,Irish,None,0,1,No,Speakers,2026-04-25T09:46:50.882Z,92,homme,enregistrements_homme/clean\20_bot_20260421_195548.wav,enregistrements_homme/clean\20_bot_20260421_195548.wav,bot,bot,same,748,,,,,,,,
P_1777109938768,2026-04-25T09:38:58.768Z,23,Male,Right-handed,English,Irish,None,0,1,No,Speakers,2026-04-25T09:46:50.882Z,93,femme,enregistrements_femme/clean_denoised\31_ket_20260422_181848.wav,enregistrements_femme/clean_denoised\31_ket_20260422_181848.wav,ket,ket,same,423,,,,,,,,
P_1777109938768,2026-04-25T09:38:58.768Z,23,Male,Right-handed,English,Irish,None,0,1,No,Speakers,2026-04-25T09:46:50.882Z,94,femme,enregistrements_femme/clean_denoised\27_dat_20260422_181842.wav,enregistrements_femme/clean_denoised\28_det_20260422_181844.wav,dat,det,different,268,,,,,,,,
P_1777109938768,2026-04-25T09:38:58.768Z,23,Male,Right-handed,English,Irish,None,0,1,No,Speakers,2026-04-25T09:46:50.882Z,95,femme,enregistrements_femme/clean_denoised\0_bant_20260422_181735.wav,enregistrements_femme/clean_denoised\2_bont_20260422_181739.wav,bant,bont,different,578,,,,,,,,
P_1777109938768,2026-04-25T09:38:58.768Z,23,Male,Right-handed,English,Irish,None,0,1,No,Speakers,2026-04-25T09:46:50.882Z,96,homme,enregistrements_homme/clean\7_tunt_20260421_195526.wav,enregistrements_homme/clean\8_tont_20260421_195527.wav,tunt,tont,different,469,,,,,,,,
P_1777109938768,2026-04-25T09:38:58.768Z,23,Male,Right-handed,English,Irish,None,0,1,No,Speakers,2026-04-25T09:46:50.882Z,97,homme,enregistrements_homme/clean\21_pat_20260421_195550.wav,enregistrements_homme/clean\23_pot_20260421_195552.wav,pat,pot,different,573,,,,,,,,
P_1777109938768,2026-04-25T09:38:58.768Z,23,Male,Right-handed,English,Irish,None,0,1,No,Speakers,2026-04-25T09:46:50.882Z,98,femme,enregistrements_femme/clean_denoised\7_tunt_20260422_181809.wav,enregistrements_femme/clean_denoised\7_tunt_20260422_181809.wav,tunt,tunt,same,1078,,,,,,,,
P_1777109938768,2026-04-25T09:38:58.768Z,23,Male,Right-handed,English,Irish,None,0,1,No,Speakers,2026-04-25T09:46:50.882Z,99,homme,enregistrements_homme/clean\12_kant_20260421_195534.wav,enregistrements_homme/clean\13_kunt_20260421_195536.wav,kant,kunt,different,527,,,,,,,,
P_1777109938768,2026-04-25T09:38:58.768Z,23,Male,Right-handed,English,Irish,None,0,1,No,Speakers,2026-04-25T09:46:50.882Z,100,femme,enregistrements_femme/clean_denoised\26_tot_20260422_181840.wav,enregistrements_femme/clean_denoised\26_tot_20260422_181840.wav,tot,tot,same,505,,,,,,,,
P_1777109938768,2026-04-25T09:38:58.768Z,23,Male,Right-handed,English,Irish,None,0,1,No,Speakers,2026-04-25T09:46:50.882Z,101,homme,enregistrements_homme/clean\22_pet_20260421_195551.wav,enregistrements_homme/clean\22_pet_20260421_195551.wav,pet,pet,same,764,,,,,,,,
P_1777109938768,2026-04-25T09:38:58.768Z,23,Male,Right-handed,English,Irish,None,0,1,No,Speakers,2026-04-25T09:46:50.882Z,102,homme,enregistrements_homme/clean\15_gant_20260421_195539.wav,enregistrements_homme/clean\16_gunt_20260421_195541.wav,gant,gunt,different,563,,,,,,,,
P_1777109938768,2026-04-25T09:38:58.768Z,23,Male,Right-handed,English,Irish,None,0,1,No,Speakers,2026-04-25T09:46:50.882Z,103,homme,enregistrements_homme/clean\7_tunt_20260421_195526.wav,enregistrements_homme/clean\7_tunt_20260421_195526.wav,tunt,tunt,same,693,,,,,,,,
P_1777109938768,2026-04-25T09:38:58.768Z,23,Male,Right-handed,English,Irish,None,0,1,No,Speakers,2026-04-25T09:46:50.882Z,104,homme,enregistrements_homme/clean\24_tat_20260421_195554.wav,enregistrements_homme/clean\24_tat_20260421_195554.wav,tat,tat,same,691,,,,,,,,
P_1777109938768,2026-04-25T09:38:58.768Z,23,Male,Right-handed,English,Irish,None,0,1,No,Speakers,2026-04-25T09:46:50.882Z,105,femme,enregistrements_femme/clean_denoised\0_bant_20260422_181735.wav,enregistrements_femme/clean_denoised\0_bant_20260422_181735.wav,bant,bant,same,963,,,,,,,,
P_1777109938768,2026-04-25T09:38:58.768Z,23,Male,Right-handed,English,Irish,None,0,1,No,Speakers,2026-04-25T09:46:50.882Z,106,homme,enregistrements_homme/clean\30_kat_20260421_195603.wav,enregistrements_homme/clean\31_ket_20260421_195604.wav,kat,ket,different,498,,,,,,,,
P_1777109938768,2026-04-25T09:38:58.768Z,23,Male,Right-handed,English,Irish,None,0,1,No,Speakers,2026-04-25T09:46:50.882Z,107,femme,enregistrements_femme/clean_denoised\22_pet_20260422_181834.wav,enregistrements_femme/clean_denoised\22_pet_20260422_181834.wav,pet,pet,same,665,,,,,,,,
P_1777109938768,2026-04-25T09:38:58.768Z,23,Male,Right-handed,English,Irish,None,0,1,No,Speakers,2026-04-25T09:46:50.882Z,108,homme,enregistrements_homme/clean\33_gat_20260421_195607.wav,enregistrements_homme/clean\33_gat_20260421_195607.wav,gat,gat,same,618,,,,,,,,
P_1777109938768,2026-04-25T09:38:58.768Z,23,Male,Right-handed,English,Irish,None,0,1,No,Speakers,2026-04-25T09:46:50.882Z,109,femme,enregistrements_femme/clean_denoised\10_dunt_20260422_181814.wav,enregistrements_femme/clean_denoised\11_dont_20260422_181816.wav,dunt,dont,different,1294,,,,,,,,
P_1777109938768,2026-04-25T09:38:58.768Z,23,Male,Right-handed,English,Irish,None,0,1,No,Speakers,2026-04-25T09:46:50.882Z,110,homme,enregistrements_homme/clean\14_kont_20260421_195538.wav,enregistrements_homme/clean\14_kont_20260421_195538.wav,kont,kont,same,572,,,,,,,,
P_1777109938768,2026-04-25T09:38:58.768Z,23,Male,Right-handed,English,Irish,None,0,1,No,Speakers,2026-04-25T09:46:50.882Z,111,femme,enregistrements_femme/clean_denoised\30_kat_20260422_181847.wav,enregistrements_femme/clean_denoised\32_kot_20260422_181850.wav,kat,kot,different,537,,,,,,,,
P_1777109938768,2026-04-25T09:38:58.768Z,23,Male,Right-handed,English,Irish,None,0,1,No,Speakers,2026-04-25T09:46:50.882Z,112,homme,enregistrements_homme/clean\12_kant_20260421_195534.wav,enregistrements_homme/clean\12_kant_20260421_195534.wav,kant,kant,same,1708,,,,,,,,
P_1777109938768,2026-04-25T09:38:58.768Z,23,Male,Right-handed,English,Irish,None,0,1,No,Speakers,2026-04-25T09:46:50.882Z,113,homme,enregistrements_homme/clean\11_dont_20260421_195532.wav,enregistrements_homme/clean\11_dont_20260421_195532.wav,dont,dont,same,576,,,,,,,,
P_1777109938768,2026-04-25T09:38:58.768Z,23,Male,Right-handed,English,Irish,None,0,1,No,Speakers,2026-04-25T09:46:50.882Z,114,homme,enregistrements_homme/clean\31_ket_20260421_195604.wav,enregistrements_homme/clean\32_kot_20260421_195606.wav,ket,kot,different,708,,,,,,,,
P_1777109938768,2026-04-25T09:38:58.768Z,23,Male,Right-handed,English,Irish,None,0,1,No,Speakers,2026-04-25T09:46:50.882Z,115,femme,enregistrements_femme/clean_denoised\0_bant_20260422_181735.wav,enregistrements_femme/clean_denoised\1_bunt_20260422_181737.wav,bant,bunt,different,807,,,,,,,,
P_1777109938768,2026-04-25T09:38:58.768Z,23,Male,Right-handed,English,Irish,None,0,1,No,Speakers,2026-04-25T09:46:50.882Z,116,femme,enregistrements_femme/clean_denoised\9_dant_20260422_181812.wav,enregistrements_femme/clean_denoised\9_dant_20260422_181812.wav,dant,dant,same,558,,,,,,,,
P_1777109938768,2026-04-25T09:38:58.768Z,23,Male,Right-handed,English,Irish,None,0,1,No,Speakers,2026-04-25T09:46:50.882Z,117,femme,enregistrements_femme/clean_denoised\29_dot_20260422_181845.wav,enregistrements_femme/clean_denoised\29_dot_20260422_181845.wav,dot,dot,same,544,,,,,,,,
P_1777109938768,2026-04-25T09:38:58.768Z,23,Male,Right-handed,English,Irish,None,0,1,No,Speakers,2026-04-25T09:46:50.882Z,118,femme,enregistrements_femme/clean_denoised\13_kunt_20260422_181819.wav,enregistrements_femme/clean_denoised\14_kont_20260422_181821.wav,kunt,kont,different,800,,,,,,,,
P_1777109938768,2026-04-25T09:38:58.768Z,23,Male,Right-handed,English,Irish,None,0,1,No,Speakers,2026-04-25T09:46:50.882Z,119,femme,enregistrements_femme/clean_denoised\34_get_20260422_181853.wav,enregistrements_femme/clean_denoised\34_get_20260422_181853.wav,get,get,same,465,,,,,,,,
P_1777109938768,2026-04-25T09:38:58.768Z,23,Male,Right-handed,English,Irish,None,0,1,No,Speakers,2026-04-25T09:46:50.882Z,120,femme,enregistrements_femme/clean_denoised\13_kunt_20260422_181819.wav,enregistrements_femme/clean_denoised\13_kunt_20260422_181819.wav,kunt,kunt,same,610,,,,,,,,
P_1777109938768,2026-04-25T09:38:58.768Z,23,Male,Right-handed,English,Irish,None,0,1,No,Speakers,2026-04-25T09:46:50.882Z,121,femme,enregistrements_femme/clean_denoised\5_pont_20260422_181744.wav,enregistrements_femme/clean_denoised\5_pont_20260422_181744.wav,pont,pont,same,544,,,,,,,,
P_1777109938768,2026-04-25T09:38:58.768Z,23,Male,Right-handed,English,Irish,None,0,1,No,Speakers,2026-04-25T09:46:50.882Z,122,femme,enregistrements_femme/clean_denoised\21_pat_20260422_181832.wav,enregistrements_femme/clean_denoised\22_pet_20260422_181834.wav,pat,pet,different,539,,,,,,,,
P_1777109938768,2026-04-25T09:38:58.768Z,23,Male,Right-handed,English,Irish,None,0,1,No,Speakers,2026-04-25T09:46:50.882Z,123,homme,enregistrements_homme/clean\3_pant_20260421_195520.wav,enregistrements_homme/clean\3_pant_20260421_195520.wav,pant,pant,same,1215,,,,,,,,
P_1777109938768,2026-04-25T09:38:58.768Z,23,Male,Right-handed,English,Irish,None,0,1,No,Speakers,2026-04-25T09:46:50.882Z,124,homme,enregistrements_homme/clean\27_dat_20260421_195558.wav,enregistrements_homme/clean\28_det_20260421_195600.wav,dat,det,different,840,,,,,,,,
P_1777109938768,2026-04-25T09:38:58.768Z,23,Male,Right-handed,English,Irish,None,0,1,No,Speakers,2026-04-25T09:46:50.882Z,125,femme,enregistrements_femme/clean_denoised\8_tont_20260422_181810.wav,enregistrements_femme/clean_denoised\8_tont_20260422_181810.wav,tont,tont,same,1072,,,,,,,,
P_1777109938768,2026-04-25T09:38:58.768Z,23,Male,Right-handed,English,Irish,None,0,1,No,Speakers,2026-04-25T09:46:50.882Z,126,femme,enregistrements_femme/clean_denoised\2_bont_20260422_181739.wav,enregistrements_femme/clean_denoised\2_bont_20260422_181739.wav,bont,bont,same,560,,,,,,,,
P_1777109938768,2026-04-25T09:38:58.768Z,23,Male,Right-handed,English,Irish,None,0,1,No,Speakers,2026-04-25T09:46:50.882Z,127,femme,enregistrements_femme/clean_denoised\18_bat_20260422_181828.wav,enregistrements_femme/clean_denoised\20_bot_20260422_181831.wav,bat,bot,different,502,,,,,,,,
P_1777109938768,2026-04-25T09:38:58.768Z,23,Male,Right-handed,English,Irish,None,0,1,No,Speakers,2026-04-25T09:46:50.882Z,128,femme,enregistrements_femme/clean_denoised\10_dunt_20260422_181814.wav,enregistrements_femme/clean_denoised\9_dant_20260422_181812.wav,dunt,dant,different,1042,,,,,,,,
P_1777109938768,2026-04-25T09:38:58.768Z,23,Male,Right-handed,English,Irish,None,0,1,No,Speakers,2026-04-25T09:46:50.882Z,129,femme,enregistrements_femme/clean_denoised\33_gat_20260422_181851.wav,enregistrements_femme/clean_denoised\34_get_20260422_181853.wav,gat,get,different,380,,,,,,,,
P_1777109938768,2026-04-25T09:38:58.768Z,23,Male,Right-handed,English,Irish,None,0,1,No,Speakers,2026-04-25T09:46:50.882Z,130,femme,enregistrements_femme/clean_denoised\25_tet_20260422_181839.wav,enregistrements_femme/clean_denoised\25_tet_20260422_181839.wav,tet,tet,same,493,,,,,,,,
P_1777109938768,2026-04-25T09:38:58.768Z,23,Male,Right-handed,English,Irish,None,0,1,No,Speakers,2026-04-25T09:46:50.882Z,131,homme,enregistrements_homme/clean\32_kot_20260421_195606.wav,enregistrements_homme/clean\32_kot_20260421_195606.wav,kot,kot,same,649,,,,,,,,
P_1777109938768,2026-04-25T09:38:58.768Z,23,Male,Right-handed,English,Irish,None,0,1,No,Speakers,2026-04-25T09:46:50.882Z,132,femme,enregistrements_femme/clean_denoised\30_kat_20260422_181847.wav,enregistrements_femme/clean_denoised\31_ket_20260422_181848.wav,kat,ket,different,487,,,,,,,,
P_1777109938768,2026-04-25T09:38:58.768Z,23,Male,Right-handed,English,Irish,None,0,1,No,Speakers,2026-04-25T09:46:50.882Z,133,femme,enregistrements_femme/clean_denoised\27_dat_20260422_181842.wav,enregistrements_femme/clean_denoised\29_dot_20260422_181845.wav,dat,dot,different,410,,,,,,,,
P_1777109938768,2026-04-25T09:38:58.768Z,23,Male,Right-handed,English,Irish,None,0,1,No,Speakers,2026-04-25T09:46:50.882Z,134,femme,enregistrements_femme/clean_denoised\15_gant_20260422_181822.wav,enregistrements_femme/clean_denoised\15_gant_20260422_181822.wav,gant,gant,same,513,,,,,,,,
P_1777109938768,2026-04-25T09:38:58.768Z,23,Male,Right-handed,English,Irish,None,0,1,No,Speakers,2026-04-25T09:46:50.882Z,135,homme,enregistrements_homme/clean\0_bant_20260421_195515.wav,enregistrements_homme/clean\2_bont_20260421_195518.wav,bant,bont,different,931,,,,,,,,
P_1777109938768,2026-04-25T09:38:58.768Z,23,Male,Right-handed,English,Irish,None,0,1,No,Speakers,2026-04-25T09:46:50.882Z,136,femme,enregistrements_femme/clean_denoised\22_pet_20260422_181834.wav,enregistrements_femme/clean_denoised\23_pot_20260422_181836.wav,pet,pot,different,536,,,,,,,,
P_1777109938768,2026-04-25T09:38:58.768Z,23,Male,Right-handed,English,Irish,None,0,1,No,Speakers,2026-04-25T09:46:50.882Z,137,homme,enregistrements_homme/clean\28_det_20260421_195600.wav,enregistrements_homme/clean\29_dot_20260421_195601.wav,det,dot,different,1959,,,,,,,,
P_1777109938768,2026-04-25T09:38:58.768Z,23,Male,Right-handed,English,Irish,None,0,1,No,Speakers,2026-04-25T09:46:50.882Z,138,femme,enregistrements_femme/clean_denoised\25_tet_20260422_181839.wav,enregistrements_femme/clean_denoised\26_tot_20260422_181840.wav,tet,tot,different,516,,,,,,,,
P_1777109938768,2026-04-25T09:38:58.768Z,23,Male,Right-handed,English,Irish,None,0,1,No,Speakers,2026-04-25T09:46:50.882Z,139,homme,enregistrements_homme/clean\18_bat_20260421_195545.wav,enregistrements_homme/clean\18_bat_20260421_195545.wav,bat,bat,same,776,,,,,,,,
P_1777109938768,2026-04-25T09:38:58.768Z,23,Male,Right-handed,English,Irish,None,0,1,No,Speakers,2026-04-25T09:46:50.882Z,140,homme,enregistrements_homme/clean\3_pant_20260421_195520.wav,enregistrements_homme/clean\4_punt_20260421_195521.wav,pant,punt,different,643,,,,,,,,
P_1777109938768,2026-04-25T09:38:58.768Z,23,Male,Right-handed,English,Irish,None,0,1,No,Speakers,2026-04-25T09:46:50.882Z,141,femme,enregistrements_femme/clean_denoised\1_bunt_20260422_181737.wav,enregistrements_femme/clean_denoised\1_bunt_20260422_181737.wav,bunt,bunt,same,632,,,,,,,,
P_1777109938768,2026-04-25T09:38:58.768Z,23,Male,Right-handed,English,Irish,None,0,1,No,Speakers,2026-04-25T09:46:50.882Z,142,femme,enregistrements_femme/clean_denoised\28_det_20260422_181844.wav,enregistrements_femme/clean_denoised\29_dot_20260422_181845.wav,det,dot,different,466,,,,,,,,
P_1777109938768,2026-04-25T09:38:58.768Z,23,Male,Right-handed,English,Irish,None,0,1,No,Speakers,2026-04-25T09:46:50.882Z,143,femme,enregistrements_femme/clean_denoised\14_kont_20260422_181821.wav,enregistrements_femme/clean_denoised\14_kont_20260422_181821.wav,kont,kont,same,840,,,,,,,,
P_1777109938768,2026-04-25T09:38:58.768Z,23,Male,Right-handed,English,Irish,None,0,1,No,Speakers,2026-04-25T09:46:50.882Z,144,femme,enregistrements_femme/clean_denoised\21_pat_20260422_181832.wav,enregistrements_femme/clean_denoised\21_pat_20260422_181832.wav,pat,pat,same,657,,,,,,,,
P_1777110628910,2026-04-25T09:50:28.915Z,24,Male,Right-handed,French,english,Native,18,7,No,Headphones,2026-04-25T09:59:08.906Z,1,homme,enregistrements_homme/clean\24_tat_20260421_195554.wav,enregistrements_homme/clean\26_tot_20260421_195557.wav,tat,tot,different,3255,,,,,,,,
P_1777110628910,2026-04-25T09:50:28.915Z,24,Male,Right-handed,French,english,Native,18,7,No,Headphones,2026-04-25T09:59:08.906Z,2,femme,enregistrements_femme/clean_denoised\2_bont_20260422_181739.wav,enregistrements_femme/clean_denoised\2_bont_20260422_181739.wav,bont,bont,same,2427,,,,,,,,
P_1777110628910,2026-04-25T09:50:28.915Z,24,Male,Right-handed,French,english,Native,18,7,No,Headphones,2026-04-25T09:59:08.906Z,3,femme,enregistrements_femme/clean_denoised\29_dot_20260422_181845.wav,enregistrements_femme/clean_denoised\29_dot_20260422_181845.wav,dot,dot,same,751,,,,,,,,
P_1777110628910,2026-04-25T09:50:28.915Z,24,Male,Right-handed,French,english,Native,18,7,No,Headphones,2026-04-25T09:59:08.906Z,4,homme,enregistrements_homme/clean\25_tet_20260421_195555.wav,enregistrements_homme/clean\25_tet_20260421_195555.wav,tet,tet,same,605,,,,,,,,
P_1777110628910,2026-04-25T09:50:28.915Z,24,Male,Right-handed,French,english,Native,18,7,No,Headphones,2026-04-25T09:59:08.906Z,5,homme,enregistrements_homme/clean\4_punt_20260421_195521.wav,enregistrements_homme/clean\5_pont_20260421_195523.wav,punt,pont,different,499,,,,,,,,
P_1777110628910,2026-04-25T09:50:28.915Z,24,Male,Right-handed,French,english,Native,18,7,No,Headphones,2026-04-25T09:59:08.906Z,6,femme,enregistrements_femme/clean_denoised\4_punt_20260422_181742.wav,enregistrements_femme/clean_denoised\5_pont_20260422_181744.wav,punt,pont,different,3326,,,,,,,,
P_1777110628910,2026-04-25T09:50:28.915Z,24,Male,Right-handed,French,english,Native,18,7,No,Headphones,2026-04-25T09:59:08.906Z,7,homme,enregistrements_homme/clean\30_kat_20260421_195603.wav,enregistrements_homme/clean\32_kot_20260421_195606.wav,kat,kot,different,2440,,,,,,,,
P_1777110628910,2026-04-25T09:50:28.915Z,24,Male,Right-handed,French,english,Native,18,7,No,Headphones,2026-04-25T09:59:08.906Z,8,homme,enregistrements_homme/clean\15_gant_20260421_195539.wav,enregistrements_homme/clean\17_gont_20260421_195543.wav,gant,gont,different,3475,,,,,,,,
P_1777110628910,2026-04-25T09:50:28.915Z,24,Male,Right-handed,French,english,Native,18,7,No,Headphones,2026-04-25T09:59:08.906Z,9,femme,enregistrements_femme/clean_denoised\25_tet_20260422_181839.wav,enregistrements_femme/clean_denoised\26_tot_20260422_181840.wav,tet,tot,different,1618,,,,,,,,
P_1777110628910,2026-04-25T09:50:28.915Z,24,Male,Right-handed,French,english,Native,18,7,No,Headphones,2026-04-25T09:59:08.906Z,10,homme,enregistrements_homme/clean\20_bot_20260421_195548.wav,enregistrements_homme/clean\20_bot_20260421_195548.wav,bot,bot,same,1132,,,,,,,,
P_1777110628910,2026-04-25T09:50:28.915Z,24,Male,Right-handed,French,english,Native,18,7,No,Headphones,2026-04-25T09:59:08.906Z,11,femme,enregistrements_femme/clean_denoised\6_tant_20260422_181747.wav,enregistrements_femme/clean_denoised\6_tant_20260422_181747.wav,tant,tant,same,1909,,,,,,,,
P_1777110628910,2026-04-25T09:50:28.915Z,24,Male,Right-handed,French,english,Native,18,7,No,Headphones,2026-04-25T09:59:08.906Z,12,homme,enregistrements_homme/clean\24_tat_20260421_195554.wav,enregistrements_homme/clean\25_tet_20260421_195555.wav,tat,tet,different,2504,,,,,,,,
P_1777110628910,2026-04-25T09:50:28.915Z,24,Male,Right-handed,French,english,Native,18,7,No,Headphones,2026-04-25T09:59:08.906Z,13,femme,enregistrements_femme/clean_denoised\3_pant_20260422_181741.wav,enregistrements_femme/clean_denoised\3_pant_20260422_181741.wav,pant,pant,same,1065,,,,,,,,
P_1777110628910,2026-04-25T09:50:28.915Z,24,Male,Right-handed,French,english,Native,18,7,No,Headphones,2026-04-25T09:59:08.906Z,14,femme,enregistrements_femme/clean_denoised\26_tot_20260422_181840.wav,enregistrements_femme/clean_denoised\26_tot_20260422_181840.wav,tot,tot,same,446,,,,,,,,
P_1777110628910,2026-04-25T09:50:28.915Z,24,Male,Right-handed,French,english,Native,18,7,No,Headphones,2026-04-25T09:59:08.906Z,15,homme,enregistrements_homme/clean\27_dat_20260421_195558.wav,enregistrements_homme/clean\29_dot_20260421_195601.wav,dat,dot,different,900,,,,,,,,
P_1777110628910,2026-04-25T09:50:28.915Z,24,Male,Right-handed,French,english,Native,18,7,No,Headphones,2026-04-25T09:59:08.906Z,16,femme,enregistrements_femme/clean_denoised\13_kunt_20260422_181819.wav,enregistrements_femme/clean_denoised\14_kont_20260422_181821.wav,kunt,kont,different,866,,,,,,,,
P_1777110628910,2026-04-25T09:50:28.915Z,24,Male,Right-handed,French,english,Native,18,7,No,Headphones,2026-04-25T09:59:08.906Z,17,homme,enregistrements_homme/clean\23_pot_20260421_195552.wav,enregistrements_homme/clean\23_pot_20260421_195552.wav,pot,pot,same,1072,,,,,,,,
P_1777110628910,2026-04-25T09:50:28.915Z,24,Male,Right-handed,French,english,Native,18,7,No,Headphones,2026-04-25T09:59:08.906Z,18,femme,enregistrements_femme/clean_denoised\18_bat_20260422_181828.wav,enregistrements_femme/clean_denoised\18_bat_20260422_181828.wav,bat,bat,same,703,,,,,,,,
P_1777110628910,2026-04-25T09:50:28.915Z,24,Male,Right-handed,French,english,Native,18,7,No,Headphones,2026-04-25T09:59:08.906Z,19,homme,enregistrements_homme/clean\29_dot_20260421_195601.wav,enregistrements_homme/clean\29_dot_20260421_195601.wav,dot,dot,same,1237,,,,,,,,
P_1777110628910,2026-04-25T09:50:28.915Z,24,Male,Right-handed,French,english,Native,18,7,No,Headphones,2026-04-25T09:59:08.906Z,20,femme,enregistrements_femme/clean_denoised\0_bant_20260422_181735.wav,enregistrements_femme/clean_denoised\0_bant_20260422_181735.wav,bant,bant,same,1094,,,,,,,,
P_1777110628910,2026-04-25T09:50:28.915Z,24,Male,Right-handed,French,english,Native,18,7,No,Headphones,2026-04-25T09:59:08.906Z,21,homme,enregistrements_homme/clean\31_ket_20260421_195604.wav,enregistrements_homme/clean\32_kot_20260421_195606.wav,ket,kot,different,582,,,,,,,,
P_1777110628910,2026-04-25T09:50:28.915Z,24,Male,Right-handed,French,english,Native,18,7,No,Headphones,2026-04-25T09:59:08.906Z,22,homme,enregistrements_homme/clean\6_tant_20260421_195524.wav,enregistrements_homme/clean\6_tant_20260421_195524.wav,tant,tant,same,617,,,,,,,,
P_1777110628910,2026-04-25T09:50:28.915Z,24,Male,Right-handed,French,english,Native,18,7,No,Headphones,2026-04-25T09:59:08.906Z,23,homme,enregistrements_homme/clean\21_pat_20260421_195550.wav,enregistrements_homme/clean\22_pet_20260421_195551.wav,pat,pet,different,5732,,,,,,,,
P_1777110628910,2026-04-25T09:50:28.915Z,24,Male,Right-handed,French,english,Native,18,7,No,Headphones,2026-04-25T09:59:08.906Z,24,femme,enregistrements_femme/clean_denoised\10_dunt_20260422_181814.wav,enregistrements_femme/clean_denoised\10_dunt_20260422_181814.wav,dunt,dunt,same,991,,,,,,,,
P_1777110628910,2026-04-25T09:50:28.915Z,24,Male,Right-handed,French,english,Native,18,7,No,Headphones,2026-04-25T09:59:08.906Z,25,femme,enregistrements_femme/clean_denoised\24_tat_20260422_181837.wav,enregistrements_femme/clean_denoised\26_tot_20260422_181840.wav,tat,tot,different,774,,,,,,,,
P_1777110628910,2026-04-25T09:50:28.915Z,24,Male,Right-handed,French,english,Native,18,7,No,Headphones,2026-04-25T09:59:08.906Z,26,homme,enregistrements_homme/clean\10_dunt_20260421_195531.wav,enregistrements_homme/clean\11_dont_20260421_195532.wav,dunt,dont,different,4742,,,,,,,,
P_1777110628910,2026-04-25T09:50:28.915Z,24,Male,Right-handed,French,english,Native,18,7,No,Headphones,2026-04-25T09:59:08.906Z,27,femme,enregistrements_femme/clean_denoised\13_kunt_20260422_181819.wav,enregistrements_femme/clean_denoised\13_kunt_20260422_181819.wav,kunt,kunt,same,878,,,,,,,,
P_1777110628910,2026-04-25T09:50:28.915Z,24,Male,Right-handed,French,english,Native,18,7,No,Headphones,2026-04-25T09:59:08.906Z,28,homme,enregistrements_homme/clean\19_bet_20260421_195546.wav,enregistrements_homme/clean\19_bet_20260421_195546.wav,bet,bet,same,617,,,,,,,,
P_1777110628910,2026-04-25T09:50:28.915Z,24,Male,Right-handed,French,english,Native,18,7,No,Headphones,2026-04-25T09:59:08.906Z,29,femme,enregistrements_femme/clean_denoised\4_punt_20260422_181742.wav,enregistrements_femme/clean_denoised\4_punt_20260422_181742.wav,punt,punt,same,1533,,,,,,,,
P_1777110628910,2026-04-25T09:50:28.915Z,24,Male,Right-handed,French,english,Native,18,7,No,Headphones,2026-04-25T09:59:08.906Z,30,femme,enregistrements_femme/clean_denoised\9_dant_20260422_181812.wav,enregistrements_femme/clean_denoised\9_dant_20260422_181812.wav,dant,dant,same,1361,,,,,,,,
P_1777110628910,2026-04-25T09:50:28.915Z,24,Male,Right-handed,French,english,Native,18,7,No,Headphones,2026-04-25T09:59:08.906Z,31,femme,enregistrements_femme/clean_denoised\24_tat_20260422_181837.wav,enregistrements_femme/clean_denoised\24_tat_20260422_181837.wav,tat,tat,same,686,,,,,,,,
P_1777110628910,2026-04-25T09:50:28.915Z,24,Male,Right-handed,French,english,Native,18,7,No,Headphones,2026-04-25T09:59:08.906Z,32,femme,enregistrements_femme/clean_denoised\3_pant_20260422_181741.wav,enregistrements_femme/clean_denoised\4_punt_20260422_181742.wav,pant,punt,different,790,,,,,,,,
P_1777110628910,2026-04-25T09:50:28.915Z,24,Male,Right-handed,French,english,Native,18,7,No,Headphones,2026-04-25T09:59:08.906Z,33,femme,enregistrements_femme/clean_denoised\15_gant_20260422_181822.wav,enregistrements_femme/clean_denoised\16_gunt_20260422_181824.wav,gant,gunt,different,1386,,,,,,,,
P_1777110628910,2026-04-25T09:50:28.915Z,24,Male,Right-handed,French,english,Native,18,7,No,Headphones,2026-04-25T09:59:08.906Z,34,homme,enregistrements_homme/clean\30_kat_20260421_195603.wav,enregistrements_homme/clean\30_kat_20260421_195603.wav,kat,kat,same,733,,,,,,,,
P_1777110628910,2026-04-25T09:50:28.915Z,24,Male,Right-handed,French,english,Native,18,7,No,Headphones,2026-04-25T09:59:08.906Z,35,homme,enregistrements_homme/clean\10_dunt_20260421_195531.wav,enregistrements_homme/clean\9_dant_20260421_195529.wav,dunt,dant,different,2696,,,,,,,,
P_1777110628910,2026-04-25T09:50:28.915Z,24,Male,Right-handed,French,english,Native,18,7,No,Headphones,2026-04-25T09:59:08.906Z,36,femme,enregistrements_femme/clean_denoised\30_kat_20260422_181847.wav,enregistrements_femme/clean_denoised\30_kat_20260422_181847.wav,kat,kat,same,714,,,,,,,,
P_1777110628910,2026-04-25T09:50:28.915Z,24,Male,Right-handed,French,english,Native,18,7,No,Headphones,2026-04-25T09:59:08.906Z,37,femme,enregistrements_femme/clean_denoised\33_gat_20260422_181851.wav,enregistrements_femme/clean_denoised\35_got_20260422_181854.wav,gat,got,different,4475,,,,,,,,
P_1777110628910,2026-04-25T09:50:28.915Z,24,Male,Right-handed,French,english,Native,18,7,No,Headphones,2026-04-25T09:59:08.906Z,38,femme,enregistrements_femme/clean_denoised\10_dunt_20260422_181814.wav,enregistrements_femme/clean_denoised\11_dont_20260422_181816.wav,dunt,dont,different,773,,,,,,,,
P_1777110628910,2026-04-25T09:50:28.915Z,24,Male,Right-handed,French,english,Native,18,7,No,Headphones,2026-04-25T09:59:08.906Z,39,femme,enregistrements_femme/clean_denoised\27_dat_20260422_181842.wav,enregistrements_femme/clean_denoised\29_dot_20260422_181845.wav,dat,dot,different,869,,,,,,,,
P_1777110628910,2026-04-25T09:50:28.915Z,24,Male,Right-handed,French,english,Native,18,7,No,Headphones,2026-04-25T09:59:08.906Z,40,femme,enregistrements_femme/clean_denoised\23_pot_20260422_181836.wav,enregistrements_femme/clean_denoised\23_pot_20260422_181836.wav,pot,pot,same,637,,,,,,,,
P_1777110628910,2026-04-25T09:50:28.915Z,24,Male,Right-handed,French,english,Native,18,7,No,Headphones,2026-04-25T09:59:08.906Z,41,homme,enregistrements_homme/clean\18_bat_20260421_195545.wav,enregistrements_homme/clean\20_bot_20260421_195548.wav,bat,bot,different,1592,,,,,,,,
P_1777110628910,2026-04-25T09:50:28.915Z,24,Male,Right-handed,French,english,Native,18,7,No,Headphones,2026-04-25T09:59:08.906Z,42,homme,enregistrements_homme/clean\3_pant_20260421_195520.wav,enregistrements_homme/clean\3_pant_20260421_195520.wav,pant,pant,same,532,,,,,,,,
P_1777110628910,2026-04-25T09:50:28.915Z,24,Male,Right-handed,French,english,Native,18,7,No,Headphones,2026-04-25T09:59:08.906Z,43,homme,enregistrements_homme/clean\18_bat_20260421_195545.wav,enregistrements_homme/clean\19_bet_20260421_195546.wav,bat,bet,different,1445,,,,,,,,
P_1777110628910,2026-04-25T09:50:28.915Z,24,Male,Right-handed,French,english,Native,18,7,No,Headphones,2026-04-25T09:59:08.906Z,44,homme,enregistrements_homme/clean\33_gat_20260421_195607.wav,enregistrements_homme/clean\35_got_20260421_195610.wav,gat,got,different,4904,,,,,,,,
P_1777110628910,2026-04-25T09:50:28.915Z,24,Male,Right-handed,French,english,Native,18,7,No,Headphones,2026-04-25T09:59:08.906Z,45,homme,enregistrements_homme/clean\34_get_20260421_195609.wav,enregistrements_homme/clean\35_got_20260421_195610.wav,get,got,different,913,,,,,,,,
P_1777110628910,2026-04-25T09:50:28.915Z,24,Male,Right-handed,French,english,Native,18,7,No,Headphones,2026-04-25T09:59:08.906Z,46,homme,enregistrements_homme/clean\0_bant_20260421_195515.wav,enregistrements_homme/clean\1_bunt_20260421_195516.wav,bant,bunt,different,393,,,,,,,,
P_1777110628910,2026-04-25T09:50:28.915Z,24,Male,Right-handed,French,english,Native,18,7,No,Headphones,2026-04-25T09:59:08.906Z,47,femme,enregistrements_femme/clean_denoised\5_pont_20260422_181744.wav,enregistrements_femme/clean_denoised\5_pont_20260422_181744.wav,pont,pont,same,397,,,,,,,,
P_1777110628910,2026-04-25T09:50:28.915Z,24,Male,Right-handed,French,english,Native,18,7,No,Headphones,2026-04-25T09:59:08.906Z,48,femme,enregistrements_femme/clean_denoised\8_tont_20260422_181810.wav,enregistrements_femme/clean_denoised\8_tont_20260422_181810.wav,tont,tont,same,393,,,,,,,,
P_1777110628910,2026-04-25T09:50:28.915Z,24,Male,Right-handed,French,english,Native,18,7,No,Headphones,2026-04-25T09:59:08.906Z,49,homme,enregistrements_homme/clean\12_kant_20260421_195534.wav,enregistrements_homme/clean\12_kant_20260421_195534.wav,kant,kant,same,661,,,,,,,,
P_1777110628910,2026-04-25T09:50:28.915Z,24,Male,Right-handed,French,english,Native,18,7,No,Headphones,2026-04-25T09:59:08.906Z,50,femme,enregistrements_femme/clean_denoised\21_pat_20260422_181832.wav,enregistrements_femme/clean_denoised\23_pot_20260422_181836.wav,pat,pot,different,1392,,,,,,,,
P_1777110628910,2026-04-25T09:50:28.915Z,24,Male,Right-handed,French,english,Native,18,7,No,Headphones,2026-04-25T09:59:08.906Z,51,homme,enregistrements_homme/clean\4_punt_20260421_195521.wav,enregistrements_homme/clean\4_punt_20260421_195521.wav,punt,punt,same,583,,,,,,,,
P_1777110628910,2026-04-25T09:50:28.915Z,24,Male,Right-handed,French,english,Native,18,7,No,Headphones,2026-04-25T09:59:08.906Z,52,homme,enregistrements_homme/clean\3_pant_20260421_195520.wav,enregistrements_homme/clean\5_pont_20260421_195523.wav,pant,pont,same,609,,,,,,,,
P_1777110628910,2026-04-25T09:50:28.915Z,24,Male,Right-handed,French,english,Native,18,7,No,Headphones,2026-04-25T09:59:08.906Z,53,homme,enregistrements_homme/clean\27_dat_20260421_195558.wav,enregistrements_homme/clean\27_dat_20260421_195558.wav,dat,dat,same,1309,,,,,,,,
P_1777110628910,2026-04-25T09:50:28.915Z,24,Male,Right-handed,French,english,Native,18,7,No,Headphones,2026-04-25T09:59:08.906Z,54,femme,enregistrements_femme/clean_denoised\34_get_20260422_181853.wav,enregistrements_femme/clean_denoised\34_get_20260422_181853.wav,get,get,same,428,,,,,,,,
P_1777110628910,2026-04-25T09:50:28.915Z,24,Male,Right-handed,French,english,Native,18,7,No,Headphones,2026-04-25T09:59:08.906Z,55,femme,enregistrements_femme/clean_denoised\22_pet_20260422_181834.wav,enregistrements_femme/clean_denoised\22_pet_20260422_181834.wav,pet,pet,same,267,,,,,,,,
P_1777110628910,2026-04-25T09:50:28.915Z,24,Male,Right-handed,French,english,Native,18,7,No,Headphones,2026-04-25T09:59:08.906Z,56,homme,enregistrements_homme/clean\12_kant_20260421_195534.wav,enregistrements_homme/clean\14_kont_20260421_195538.wav,kant,kont,different,1804,,,,,,,,
P_1777110628910,2026-04-25T09:50:28.915Z,24,Male,Right-handed,French,english,Native,18,7,No,Headphones,2026-04-25T09:59:08.906Z,57,femme,enregistrements_femme/clean_denoised\1_bunt_20260422_181737.wav,enregistrements_femme/clean_denoised\1_bunt_20260422_181737.wav,bunt,bunt,same,786,,,,,,,,
P_1777110628910,2026-04-25T09:50:28.915Z,24,Male,Right-handed,French,english,Native,18,7,No,Headphones,2026-04-25T09:59:08.906Z,58,femme,enregistrements_femme/clean_denoised\6_tant_20260422_181747.wav,enregistrements_femme/clean_denoised\8_tont_20260422_181810.wav,tant,tont,different,1355,,,,,,,,
P_1777110628910,2026-04-25T09:50:28.915Z,24,Male,Right-handed,French,english,Native,18,7,No,Headphones,2026-04-25T09:59:08.906Z,59,homme,enregistrements_homme/clean\31_ket_20260421_195604.wav,enregistrements_homme/clean\31_ket_20260421_195604.wav,ket,ket,same,1118,,,,,,,,
P_1777110628910,2026-04-25T09:50:28.915Z,24,Male,Right-handed,French,english,Native,18,7,No,Headphones,2026-04-25T09:59:08.906Z,60,femme,enregistrements_femme/clean_denoised\12_kant_20260422_181817.wav,enregistrements_femme/clean_denoised\12_kant_20260422_181817.wav,kant,kant,same,4029,,,,,,,,
P_1777110628910,2026-04-25T09:50:28.915Z,24,Male,Right-handed,French,english,Native,18,7,No,Headphones,2026-04-25T09:59:08.906Z,61,femme,enregistrements_femme/clean_denoised\18_bat_20260422_181828.wav,enregistrements_femme/clean_denoised\19_bet_20260422_181829.wav,bat,bet,different,503,,,,,,,,
P_1777110628910,2026-04-25T09:50:28.915Z,24,Male,Right-handed,French,english,Native,18,7,No,Headphones,2026-04-25T09:59:08.906Z,62,homme,enregistrements_homme/clean\7_tunt_20260421_195526.wav,enregistrements_homme/clean\8_tont_20260421_195527.wav,tunt,tont,different,467,,,,,,,,
P_1777110628910,2026-04-25T09:50:28.915Z,24,Male,Right-handed,French,english,Native,18,7,No,Headphones,2026-04-25T09:59:08.906Z,63,homme,enregistrements_homme/clean\28_det_20260421_195600.wav,enregistrements_homme/clean\29_dot_20260421_195601.wav,det,dot,different,670,,,,,,,,
P_1777110628910,2026-04-25T09:50:28.915Z,24,Male,Right-handed,French,english,Native,18,7,No,Headphones,2026-04-25T09:59:08.906Z,64,femme,enregistrements_femme/clean_denoised\34_get_20260422_181853.wav,enregistrements_femme/clean_denoised\35_got_20260422_181854.wav,get,got,different,1531,,,,,,,,
P_1777110628910,2026-04-25T09:50:28.915Z,24,Male,Right-handed,French,english,Native,18,7,No,Headphones,2026-04-25T09:59:08.906Z,65,femme,enregistrements_femme/clean_denoised\22_pet_20260422_181834.wav,enregistrements_femme/clean_denoised\23_pot_20260422_181836.wav,pet,pot,different,402,,,,,,,,
P_1777110628910,2026-04-25T09:50:28.915Z,24,Male,Right-handed,French,english,Native,18,7,No,Headphones,2026-04-25T09:59:08.906Z,66,femme,enregistrements_femme/clean_denoised\1_bunt_20260422_181737.wav,enregistrements_femme/clean_denoised\2_bont_20260422_181739.wav,bunt,bont,different,898,,,,,,,,
P_1777110628910,2026-04-25T09:50:28.915Z,24,Male,Right-handed,French,english,Native,18,7,No,Headphones,2026-04-25T09:59:08.906Z,67,homme,enregistrements_homme/clean\26_tot_20260421_195557.wav,enregistrements_homme/clean\26_tot_20260421_195557.wav,tot,tot,same,1380,,,,,,,,
P_1777110628910,2026-04-25T09:50:28.915Z,24,Male,Right-handed,French,english,Native,18,7,No,Headphones,2026-04-25T09:59:08.906Z,68,homme,enregistrements_homme/clean\5_pont_20260421_195523.wav,enregistrements_homme/clean\5_pont_20260421_195523.wav,pont,pont,same,1846,,,,,,,,
P_1777110628910,2026-04-25T09:50:28.915Z,24,Male,Right-handed,French,english,Native,18,7,No,Headphones,2026-04-25T09:59:08.906Z,69,femme,enregistrements_femme/clean_denoised\30_kat_20260422_181847.wav,enregistrements_femme/clean_denoised\32_kot_20260422_181850.wav,kat,kot,different,1061,,,,,,,,
P_1777110628910,2026-04-25T09:50:28.915Z,24,Male,Right-handed,French,english,Native,18,7,No,Headphones,2026-04-25T09:59:08.906Z,70,homme,enregistrements_homme/clean\14_kont_20260421_195538.wav,enregistrements_homme/clean\14_kont_20260421_195538.wav,kont,kont,same,945,,,,,,,,
P_1777110628910,2026-04-25T09:50:28.915Z,24,Male,Right-handed,French,english,Native,18,7,No,Headphones,2026-04-25T09:59:08.906Z,71,femme,enregistrements_femme/clean_denoised\27_dat_20260422_181842.wav,enregistrements_femme/clean_denoised\28_det_20260422_181844.wav,dat,det,different,1897,,,,,,,,
P_1777110628910,2026-04-25T09:50:28.915Z,24,Male,Right-handed,French,english,Native,18,7,No,Headphones,2026-04-25T09:59:08.906Z,72,homme,enregistrements_homme/clean\0_bant_20260421_195515.wav,enregistrements_homme/clean\2_bont_20260421_195518.wav,bant,bont,same,1737,,,,,,,,
P_1777110628910,2026-04-25T09:50:28.915Z,24,Male,Right-handed,French,english,Native,18,7,No,Headphones,2026-04-25T09:59:08.906Z,73,homme,enregistrements_homme/clean\35_got_20260421_195610.wav,enregistrements_homme/clean\35_got_20260421_195610.wav,got,got,same,1073,,,,,,,,
P_1777110628910,2026-04-25T09:50:28.915Z,24,Male,Right-handed,French,english,Native,18,7,No,Headphones,2026-04-25T09:59:08.906Z,74,femme,enregistrements_femme/clean_denoised\12_kant_20260422_181817.wav,enregistrements_femme/clean_denoised\14_kont_20260422_181821.wav,kant,kont,different,1259,,,,,,,,
P_1777110628910,2026-04-25T09:50:28.915Z,24,Male,Right-handed,French,english,Native,18,7,No,Headphones,2026-04-25T09:59:08.906Z,75,femme,enregistrements_femme/clean_denoised\31_ket_20260422_181848.wav,enregistrements_femme/clean_denoised\32_kot_20260422_181850.wav,ket,kot,different,963,,,,,,,,
P_1777110628910,2026-04-25T09:50:28.915Z,24,Male,Right-handed,French,english,Native,18,7,No,Headphones,2026-04-25T09:59:08.906Z,76,femme,enregistrements_femme/clean_denoised\28_det_20260422_181844.wav,enregistrements_femme/clean_denoised\28_det_20260422_181844.wav,det,det,same,2360,,,,,,,,
P_1777110628910,2026-04-25T09:50:28.915Z,24,Male,Right-handed,French,english,Native,18,7,No,Headphones,2026-04-25T09:59:08.906Z,77,homme,enregistrements_homme/clean\16_gunt_20260421_195541.wav,enregistrements_homme/clean\17_gont_20260421_195543.wav,gunt,gont,different,1057,,,,,,,,
P_1777110628910,2026-04-25T09:50:28.915Z,24,Male,Right-handed,French,english,Native,18,7,No,Headphones,2026-04-25T09:59:08.906Z,78,femme,enregistrements_femme/clean_denoised\33_gat_20260422_181851.wav,enregistrements_femme/clean_denoised\33_gat_20260422_181851.wav,gat,gat,same,1616,,,,,,,,
P_1777110628910,2026-04-25T09:50:28.915Z,24,Male,Right-handed,French,english,Native,18,7,No,Headphones,2026-04-25T09:59:08.906Z,79,femme,enregistrements_femme/clean_denoised\21_pat_20260422_181832.wav,enregistrements_femme/clean_denoised\22_pet_20260422_181834.wav,pat,pet,different,4092,,,,,,,,
P_1777110628910,2026-04-25T09:50:28.915Z,24,Male,Right-handed,French,english,Native,18,7,No,Headphones,2026-04-25T09:59:08.906Z,80,femme,enregistrements_femme/clean_denoised\0_bant_20260422_181735.wav,enregistrements_femme/clean_denoised\1_bunt_20260422_181737.wav,bant,bunt,different,3548,,,,,,,,
P_1777110628910,2026-04-25T09:50:28.915Z,24,Male,Right-handed,French,english,Native,18,7,No,Headphones,2026-04-25T09:59:08.906Z,81,homme,enregistrements_homme/clean\13_kunt_20260421_195536.wav,enregistrements_homme/clean\14_kont_20260421_195538.wav,kunt,kont,different,3872,,,,,,,,
P_1777110628910,2026-04-25T09:50:28.915Z,24,Male,Right-handed,French,english,Native,18,7,No,Headphones,2026-04-25T09:59:08.906Z,82,homme,enregistrements_homme/clean\30_kat_20260421_195603.wav,enregistrements_homme/clean\31_ket_20260421_195604.wav,kat,ket,different,1649,,,,,,,,
P_1777110628910,2026-04-25T09:50:28.915Z,24,Male,Right-handed,French,english,Native,18,7,No,Headphones,2026-04-25T09:59:08.906Z,83,femme,enregistrements_femme/clean_denoised\30_kat_20260422_181847.wav,enregistrements_femme/clean_denoised\31_ket_20260422_181848.wav,kat,ket,different,506,,,,,,,,
P_1777110628910,2026-04-25T09:50:28.915Z,24,Male,Right-handed,French,english,Native,18,7,No,Headphones,2026-04-25T09:59:08.906Z,84,homme,enregistrements_homme/clean\19_bet_20260421_195546.wav,enregistrements_homme/clean\20_bot_20260421_195548.wav,bet,bot,different,930,,,,,,,,
P_1777110628910,2026-04-25T09:50:28.915Z,24,Male,Right-handed,French,english,Native,18,7,No,Headphones,2026-04-25T09:59:08.906Z,85,femme,enregistrements_femme/clean_denoised\21_pat_20260422_181832.wav,enregistrements_femme/clean_denoised\21_pat_20260422_181832.wav,pat,pat,same,601,,,,,,,,
P_1777110628910,2026-04-25T09:50:28.915Z,24,Male,Right-handed,French,english,Native,18,7,No,Headphones,2026-04-25T09:59:08.906Z,86,homme,enregistrements_homme/clean\11_dont_20260421_195532.wav,enregistrements_homme/clean\11_dont_20260421_195532.wav,dont,dont,same,458,,,,,,,,
P_1777110628910,2026-04-25T09:50:28.915Z,24,Male,Right-handed,French,english,Native,18,7,No,Headphones,2026-04-25T09:59:08.906Z,87,femme,enregistrements_femme/clean_denoised\10_dunt_20260422_181814.wav,enregistrements_femme/clean_denoised\9_dant_20260422_181812.wav,dunt,dant,different,573,,,,,,,,
P_1777110628910,2026-04-25T09:50:28.915Z,24,Male,Right-handed,French,english,Native,18,7,No,Headphones,2026-04-25T09:59:08.906Z,88,femme,enregistrements_femme/clean_denoised\32_kot_20260422_181850.wav,enregistrements_femme/clean_denoised\32_kot_20260422_181850.wav,kot,kot,same,445,,,,,,,,
P_1777110628910,2026-04-25T09:50:28.915Z,24,Male,Right-handed,French,english,Native,18,7,No,Headphones,2026-04-25T09:59:08.906Z,89,homme,enregistrements_homme/clean\25_tet_20260421_195555.wav,enregistrements_homme/clean\26_tot_20260421_195557.wav,tet,tot,different,565,,,,,,,,
P_1777110628910,2026-04-25T09:50:28.915Z,24,Male,Right-handed,French,english,Native,18,7,No,Headphones,2026-04-25T09:59:08.906Z,90,homme,enregistrements_homme/clean\10_dunt_20260421_195531.wav,enregistrements_homme/clean\10_dunt_20260421_195531.wav,dunt,dunt,same,138,,,,,,,,
P_1777110628910,2026-04-25T09:50:28.915Z,24,Male,Right-handed,French,english,Native,18,7,No,Headphones,2026-04-25T09:59:08.906Z,91,femme,enregistrements_femme/clean_denoised\11_dont_20260422_181816.wav,enregistrements_femme/clean_denoised\11_dont_20260422_181816.wav,dont,dont,same,162,,,,,,,,
P_1777110628910,2026-04-25T09:50:28.915Z,24,Male,Right-handed,French,english,Native,18,7,No,Headphones,2026-04-25T09:59:08.906Z,92,femme,enregistrements_femme/clean_denoised\33_gat_20260422_181851.wav,enregistrements_femme/clean_denoised\34_get_20260422_181853.wav,gat,get,different,564,,,,,,,,
P_1777110628910,2026-04-25T09:50:28.915Z,24,Male,Right-handed,French,english,Native,18,7,No,Headphones,2026-04-25T09:59:08.906Z,93,homme,enregistrements_homme/clean\34_get_20260421_195609.wav,enregistrements_homme/clean\34_get_20260421_195609.wav,get,get,same,673,,,,,,,,
P_1777110628910,2026-04-25T09:50:28.915Z,24,Male,Right-handed,French,english,Native,18,7,No,Headphones,2026-04-25T09:59:08.906Z,94,femme,enregistrements_femme/clean_denoised\24_tat_20260422_181837.wav,enregistrements_femme/clean_denoised\25_tet_20260422_181839.wav,tat,tet,different,427,,,,,,,,
P_1777110628910,2026-04-25T09:50:28.915Z,24,Male,Right-handed,French,english,Native,18,7,No,Headphones,2026-04-25T09:59:08.906Z,95,femme,enregistrements_femme/clean_denoised\11_dont_20260422_181816.wav,enregistrements_femme/clean_denoised\9_dant_20260422_181812.wav,dont,dant,same,989,,,,,,,,
P_1777110628910,2026-04-25T09:50:28.915Z,24,Male,Right-handed,French,english,Native,18,7,No,Headphones,2026-04-25T09:59:08.906Z,96,homme,enregistrements_homme/clean\21_pat_20260421_195550.wav,enregistrements_homme/clean\23_pot_20260421_195552.wav,pat,pot,different,604,,,,,,,,
P_1777110628910,2026-04-25T09:50:28.915Z,24,Male,Right-handed,French,english,Native,18,7,No,Headphones,2026-04-25T09:59:08.906Z,97,homme,enregistrements_homme/clean\2_bont_20260421_195518.wav,enregistrements_homme/clean\2_bont_20260421_195518.wav,bont,bont,same,154,,,,,,,,
P_1777110628910,2026-04-25T09:50:28.915Z,24,Male,Right-handed,French,english,Native,18,7,No,Headphones,2026-04-25T09:59:08.906Z,98,homme,enregistrements_homme/clean\15_gant_20260421_195539.wav,enregistrements_homme/clean\16_gunt_20260421_195541.wav,gant,gunt,different,1293,,,,,,,,
P_1777110628910,2026-04-25T09:50:28.915Z,24,Male,Right-handed,French,english,Native,18,7,No,Headphones,2026-04-25T09:59:08.906Z,99,homme,enregistrements_homme/clean\22_pet_20260421_195551.wav,enregistrements_homme/clean\23_pot_20260421_195552.wav,pet,pot,different,593,,,,,,,,
P_1777110628910,2026-04-25T09:50:28.915Z,24,Male,Right-handed,French,english,Native,18,7,No,Headphones,2026-04-25T09:59:08.906Z,100,homme,enregistrements_homme/clean\18_bat_20260421_195545.wav,enregistrements_homme/clean\18_bat_20260421_195545.wav,bat,bat,same,1018,,,,,,,,
P_1777110628910,2026-04-25T09:50:28.915Z,24,Male,Right-handed,French,english,Native,18,7,No,Headphones,2026-04-25T09:59:08.906Z,101,homme,enregistrements_homme/clean\1_bunt_20260421_195516.wav,enregistrements_homme/clean\2_bont_20260421_195518.wav,bunt,bont,different,467,,,,,,,,
P_1777110628910,2026-04-25T09:50:28.915Z,24,Male,Right-handed,French,english,Native,18,7,No,Headphones,2026-04-25T09:59:08.906Z,102,femme,enregistrements_femme/clean_denoised\7_tunt_20260422_181809.wav,enregistrements_femme/clean_denoised\8_tont_20260422_181810.wav,tunt,tont,different,399,,,,,,,,
P_1777110628910,2026-04-25T09:50:28.915Z,24,Male,Right-handed,French,english,Native,18,7,No,Headphones,2026-04-25T09:59:08.906Z,103,homme,enregistrements_homme/clean\33_gat_20260421_195607.wav,enregistrements_homme/clean\33_gat_20260421_195607.wav,gat,gat,same,550,,,,,,,,
P_1777110628910,2026-04-25T09:50:28.915Z,24,Male,Right-handed,French,english,Native,18,7,No,Headphones,2026-04-25T09:59:08.906Z,104,femme,enregistrements_femme/clean_denoised\17_gont_20260422_181826.wav,enregistrements_femme/clean_denoised\17_gont_20260422_181826.wav,gont,gont,same,345,,,,,,,,
P_1777110628910,2026-04-25T09:50:28.915Z,24,Male,Right-handed,French,english,Native,18,7,No,Headphones,2026-04-25T09:59:08.906Z,105,femme,enregistrements_femme/clean_denoised\12_kant_20260422_181817.wav,enregistrements_femme/clean_denoised\13_kunt_20260422_181819.wav,kant,kunt,different,279,,,,,,,,
P_1777110628910,2026-04-25T09:50:28.915Z,24,Male,Right-handed,French,english,Native,18,7,No,Headphones,2026-04-25T09:59:08.906Z,106,femme,enregistrements_femme/clean_denoised\7_tunt_20260422_181809.wav,enregistrements_femme/clean_denoised\7_tunt_20260422_181809.wav,tunt,tunt,same,450,,,,,,,,
P_1777110628910,2026-04-25T09:50:28.915Z,24,Male,Right-handed,French,english,Native,18,7,No,Headphones,2026-04-25T09:59:08.906Z,107,femme,enregistrements_femme/clean_denoised\15_gant_20260422_181822.wav,enregistrements_femme/clean_denoised\15_gant_20260422_181822.wav,gant,gant,same,692,,,,,,,,
P_1777110628910,2026-04-25T09:50:28.915Z,24,Male,Right-handed,French,english,Native,18,7,No,Headphones,2026-04-25T09:59:08.906Z,108,homme,enregistrements_homme/clean\27_dat_20260421_195558.wav,enregistrements_homme/clean\28_det_20260421_195600.wav,dat,det,different,453,,,,,,,,
P_1777110628910,2026-04-25T09:50:28.915Z,24,Male,Right-handed,French,english,Native,18,7,No,Headphones,2026-04-25T09:59:08.906Z,109,homme,enregistrements_homme/clean\8_tont_20260421_195527.wav,enregistrements_homme/clean\8_tont_20260421_195527.wav,tont,tont,same,1046,,,,,,,,
P_1777110628910,2026-04-25T09:50:28.915Z,24,Male,Right-handed,French,english,Native,18,7,No,Headphones,2026-04-25T09:59:08.906Z,110,homme,enregistrements_homme/clean\17_gont_20260421_195543.wav,enregistrements_homme/clean\17_gont_20260421_195543.wav,gont,gont,same,418,,,,,,,,
P_1777110628910,2026-04-25T09:50:28.915Z,24,Male,Right-handed,French,english,Native,18,7,No,Headphones,2026-04-25T09:59:08.906Z,111,femme,enregistrements_femme/clean_denoised\6_tant_20260422_181747.wav,enregistrements_femme/clean_denoised\7_tunt_20260422_181809.wav,tant,tunt,different,314,,,,,,,,
P_1777110628910,2026-04-25T09:50:28.915Z,24,Male,Right-handed,French,english,Native,18,7,No,Headphones,2026-04-25T09:59:08.906Z,112,homme,enregistrements_homme/clean\3_pant_20260421_195520.wav,enregistrements_homme/clean\4_punt_20260421_195521.wav,pant,punt,different,520,,,,,,,,
P_1777110628910,2026-04-25T09:50:28.915Z,24,Male,Right-handed,French,english,Native,18,7,No,Headphones,2026-04-25T09:59:08.906Z,113,femme,enregistrements_femme/clean_denoised\27_dat_20260422_181842.wav,enregistrements_femme/clean_denoised\27_dat_20260422_181842.wav,dat,dat,same,387,,,,,,,,
P_1777110628910,2026-04-25T09:50:28.915Z,24,Male,Right-handed,French,english,Native,18,7,No,Headphones,2026-04-25T09:59:08.906Z,114,femme,enregistrements_femme/clean_denoised\19_bet_20260422_181829.wav,enregistrements_femme/clean_denoised\20_bot_20260422_181831.wav,bet,bot,different,76,,,,,,,,
P_1777110628910,2026-04-25T09:50:28.915Z,24,Male,Right-handed,French,english,Native,18,7,No,Headphones,2026-04-25T09:59:08.906Z,115,homme,enregistrements_homme/clean\12_kant_20260421_195534.wav,enregistrements_homme/clean\13_kunt_20260421_195536.wav,kant,kunt,different,555,,,,,,,,
P_1777110628910,2026-04-25T09:50:28.915Z,24,Male,Right-handed,French,english,Native,18,7,No,Headphones,2026-04-25T09:59:08.906Z,116,homme,enregistrements_homme/clean\33_gat_20260421_195607.wav,enregistrements_homme/clean\34_get_20260421_195609.wav,gat,get,different,617,,,,,,,,
P_1777110628910,2026-04-25T09:50:28.915Z,24,Male,Right-handed,French,english,Native,18,7,No,Headphones,2026-04-25T09:59:08.906Z,117,homme,enregistrements_homme/clean\28_det_20260421_195600.wav,enregistrements_homme/clean\28_det_20260421_195600.wav,det,det,same,678,,,,,,,,
P_1777110628910,2026-04-25T09:50:28.915Z,24,Male,Right-handed,French,english,Native,18,7,No,Headphones,2026-04-25T09:59:08.906Z,118,homme,enregistrements_homme/clean\9_dant_20260421_195529.wav,enregistrements_homme/clean\9_dant_20260421_195529.wav,dant,dant,same,118,,,,,,,,
P_1777110628910,2026-04-25T09:50:28.915Z,24,Male,Right-handed,French,english,Native,18,7,No,Headphones,2026-04-25T09:59:08.906Z,119,homme,enregistrements_homme/clean\7_tunt_20260421_195526.wav,enregistrements_homme/clean\7_tunt_20260421_195526.wav,tunt,tunt,same,539,,,,,,,,
P_1777110628910,2026-04-25T09:50:28.915Z,24,Male,Right-handed,French,english,Native,18,7,No,Headphones,2026-04-25T09:59:08.906Z,120,homme,enregistrements_homme/clean\13_kunt_20260421_195536.wav,enregistrements_homme/clean\13_kunt_20260421_195536.wav,kunt,kunt,same,437,,,,,,,,
P_1777110628910,2026-04-25T09:50:28.915Z,24,Male,Right-handed,French,english,Native,18,7,No,Headphones,2026-04-25T09:59:08.906Z,121,homme,enregistrements_homme/clean\0_bant_20260421_195515.wav,enregistrements_homme/clean\0_bant_20260421_195515.wav,bant,bant,same,1223,,,,,,,,
P_1777110628910,2026-04-25T09:50:28.915Z,24,Male,Right-handed,French,english,Native,18,7,No,Headphones,2026-04-25T09:59:08.906Z,122,homme,enregistrements_homme/clean\15_gant_20260421_195539.wav,enregistrements_homme/clean\15_gant_20260421_195539.wav,gant,gant,same,500,,,,,,,,
P_1777110628910,2026-04-25T09:50:28.915Z,24,Male,Right-handed,French,english,Native,18,7,No,Headphones,2026-04-25T09:59:08.906Z,123,homme,enregistrements_homme/clean\22_pet_20260421_195551.wav,enregistrements_homme/clean\22_pet_20260421_195551.wav,pet,pet,same,1028,,,,,,,,
P_1777110628910,2026-04-25T09:50:28.915Z,24,Male,Right-handed,French,english,Native,18,7,No,Headphones,2026-04-25T09:59:08.906Z,124,femme,enregistrements_femme/clean_denoised\20_bot_20260422_181831.wav,enregistrements_femme/clean_denoised\20_bot_20260422_181831.wav,bot,bot,same,284,,,,,,,,
P_1777110628910,2026-04-25T09:50:28.915Z,24,Male,Right-handed,French,english,Native,18,7,No,Headphones,2026-04-25T09:59:08.906Z,125,homme,enregistrements_homme/clean\11_dont_20260421_195532.wav,enregistrements_homme/clean\9_dant_20260421_195529.wav,dont,dant,different,435,,,,,,,,
P_1777110628910,2026-04-25T09:50:28.915Z,24,Male,Right-handed,French,english,Native,18,7,No,Headphones,2026-04-25T09:59:08.906Z,126,femme,enregistrements_femme/clean_denoised\15_gant_20260422_181822.wav,enregistrements_femme/clean_denoised\17_gont_20260422_181826.wav,gant,gont,different,1224,,,,,,,,
P_1777110628910,2026-04-25T09:50:28.915Z,24,Male,Right-handed,French,english,Native,18,7,No,Headphones,2026-04-25T09:59:08.906Z,127,femme,enregistrements_femme/clean_denoised\25_tet_20260422_181839.wav,enregistrements_femme/clean_denoised\25_tet_20260422_181839.wav,tet,tet,same,643,,,,,,,,
P_1777110628910,2026-04-25T09:50:28.915Z,24,Male,Right-handed,French,english,Native,18,7,No,Headphones,2026-04-25T09:59:08.906Z,128,homme,enregistrements_homme/clean\32_kot_20260421_195606.wav,enregistrements_homme/clean\32_kot_20260421_195606.wav,kot,kot,same,572,,,,,,,,
P_1777110628910,2026-04-25T09:50:28.915Z,24,Male,Right-handed,French,english,Native,18,7,No,Headphones,2026-04-25T09:59:08.906Z,129,femme,enregistrements_femme/clean_denoised\16_gunt_20260422_181824.wav,enregistrements_femme/clean_denoised\16_gunt_20260422_181824.wav,gunt,gunt,same,1099,,,,,,,,
P_1777110628910,2026-04-25T09:50:28.915Z,24,Male,Right-handed,French,english,Native,18,7,No,Headphones,2026-04-25T09:59:08.906Z,130,homme,enregistrements_homme/clean\6_tant_20260421_195524.wav,enregistrements_homme/clean\8_tont_20260421_195527.wav,tant,tont,different,1411,,,,,,,,
P_1777110628910,2026-04-25T09:50:28.915Z,24,Male,Right-handed,French,english,Native,18,7,No,Headphones,2026-04-25T09:59:08.906Z,131,femme,enregistrements_femme/clean_denoised\0_bant_20260422_181735.wav,enregistrements_femme/clean_denoised\2_bont_20260422_181739.wav,bant,bont,different,476,,,,,,,,
P_1777110628910,2026-04-25T09:50:28.915Z,24,Male,Right-handed,French,english,Native,18,7,No,Headphones,2026-04-25T09:59:08.906Z,132,femme,enregistrements_femme/clean_denoised\14_kont_20260422_181821.wav,enregistrements_femme/clean_denoised\14_kont_20260422_181821.wav,kont,kont,same,516,,,,,,,,
P_1777110628910,2026-04-25T09:50:28.915Z,24,Male,Right-handed,French,english,Native,18,7,No,Headphones,2026-04-25T09:59:08.906Z,133,homme,enregistrements_homme/clean\24_tat_20260421_195554.wav,enregistrements_homme/clean\24_tat_20260421_195554.wav,tat,tat,same,1990,,,,,,,,
P_1777110628910,2026-04-25T09:50:28.915Z,24,Male,Right-handed,French,english,Native,18,7,No,Headphones,2026-04-25T09:59:08.906Z,134,femme,enregistrements_femme/clean_denoised\3_pant_20260422_181741.wav,enregistrements_femme/clean_denoised\5_pont_20260422_181744.wav,pant,pont,same,1233,,,,,,,,
P_1777110628910,2026-04-25T09:50:28.915Z,24,Male,Right-handed,French,english,Native,18,7,No,Headphones,2026-04-25T09:59:08.906Z,135,homme,enregistrements_homme/clean\6_tant_20260421_195524.wav,enregistrements_homme/clean\7_tunt_20260421_195526.wav,tant,tunt,different,566,,,,,,,,
P_1777110628910,2026-04-25T09:50:28.915Z,24,Male,Right-handed,French,english,Native,18,7,No,Headphones,2026-04-25T09:59:08.906Z,136,homme,enregistrements_homme/clean\16_gunt_20260421_195541.wav,enregistrements_homme/clean\16_gunt_20260421_195541.wav,gunt,gunt,same,1256,,,,,,,,
P_1777110628910,2026-04-25T09:50:28.915Z,24,Male,Right-handed,French,english,Native,18,7,No,Headphones,2026-04-25T09:59:08.906Z,137,femme,enregistrements_femme/clean_denoised\35_got_20260422_181854.wav,enregistrements_femme/clean_denoised\35_got_20260422_181854.wav,got,got,same,2426,,,,,,,,
P_1777110628910,2026-04-25T09:50:28.915Z,24,Male,Right-handed,French,english,Native,18,7,No,Headphones,2026-04-25T09:59:08.906Z,138,femme,enregistrements_femme/clean_denoised\18_bat_20260422_181828.wav,enregistrements_femme/clean_denoised\20_bot_20260422_181831.wav,bat,bot,different,2216,,,,,,,,
P_1777110628910,2026-04-25T09:50:28.915Z,24,Male,Right-handed,French,english,Native,18,7,No,Headphones,2026-04-25T09:59:08.906Z,139,homme,enregistrements_homme/clean\21_pat_20260421_195550.wav,enregistrements_homme/clean\21_pat_20260421_195550.wav,pat,pat,same,616,,,,,,,,
P_1777110628910,2026-04-25T09:50:28.915Z,24,Male,Right-handed,French,english,Native,18,7,No,Headphones,2026-04-25T09:59:08.906Z,140,homme,enregistrements_homme/clean\1_bunt_20260421_195516.wav,enregistrements_homme/clean\1_bunt_20260421_195516.wav,bunt,bunt,same,1063,,,,,,,,
P_1777110628910,2026-04-25T09:50:28.915Z,24,Male,Right-handed,French,english,Native,18,7,No,Headphones,2026-04-25T09:59:08.906Z,141,femme,enregistrements_femme/clean_denoised\28_det_20260422_181844.wav,enregistrements_femme/clean_denoised\29_dot_20260422_181845.wav,det,dot,different,4599,,,,,,,,
P_1777110628910,2026-04-25T09:50:28.915Z,24,Male,Right-handed,French,english,Native,18,7,No,Headphones,2026-04-25T09:59:08.906Z,142,femme,enregistrements_femme/clean_denoised\19_bet_20260422_181829.wav,enregistrements_femme/clean_denoised\19_bet_20260422_181829.wav,bet,bet,same,513,,,,,,,,
P_1777110628910,2026-04-25T09:50:28.915Z,24,Male,Right-handed,French,english,Native,18,7,No,Headphones,2026-04-25T09:59:08.906Z,143,femme,enregistrements_femme/clean_denoised\16_gunt_20260422_181824.wav,enregistrements_femme/clean_denoised\17_gont_20260422_181826.wav,gunt,gont,different,1448,,,,,,,,
P_1777110628910,2026-04-25T09:50:28.915Z,24,Male,Right-handed,French,english,Native,18,7,No,Headphones,2026-04-25T09:59:08.906Z,144,femme,enregistrements_femme/clean_denoised\31_ket_20260422_181848.wav,enregistrements_femme/clean_denoised\31_ket_20260422_181848.wav,ket,ket,same,589,,,,,,,,
P_1777112065838,2026-04-25T10:14:25.839Z,25,Female,Right-handed,French,English,Native,25,7,No,Speakers,2026-04-25T10:21:53.267Z,1,homme,enregistrements_homme/clean\4_punt_20260421_195521.wav,enregistrements_homme/clean\4_punt_20260421_195521.wav,punt,punt,same,841,,,,,,,,
P_1777112065838,2026-04-25T10:14:25.839Z,25,Female,Right-handed,French,English,Native,25,7,No,Speakers,2026-04-25T10:21:53.267Z,2,femme,enregistrements_femme/clean_denoised\24_tat_20260422_181837.wav,enregistrements_femme/clean_denoised\25_tet_20260422_181839.wav,tat,tet,different,592,,,,,,,,
P_1777112065838,2026-04-25T10:14:25.839Z,25,Female,Right-handed,French,English,Native,25,7,No,Speakers,2026-04-25T10:21:53.267Z,3,homme,enregistrements_homme/clean\6_tant_20260421_195524.wav,enregistrements_homme/clean\8_tont_20260421_195527.wav,tant,tont,different,615,,,,,,,,
P_1777112065838,2026-04-25T10:14:25.839Z,25,Female,Right-handed,French,English,Native,25,7,No,Speakers,2026-04-25T10:21:53.267Z,4,homme,enregistrements_homme/clean\21_pat_20260421_195550.wav,enregistrements_homme/clean\22_pet_20260421_195551.wav,pat,pet,different,625,,,,,,,,
P_1777112065838,2026-04-25T10:14:25.839Z,25,Female,Right-handed,French,English,Native,25,7,No,Speakers,2026-04-25T10:21:53.267Z,5,homme,enregistrements_homme/clean\15_gant_20260421_195539.wav,enregistrements_homme/clean\17_gont_20260421_195543.wav,gant,gont,different,839,,,,,,,,
P_1777112065838,2026-04-25T10:14:25.839Z,25,Female,Right-handed,French,English,Native,25,7,No,Speakers,2026-04-25T10:21:53.267Z,6,homme,enregistrements_homme/clean\22_pet_20260421_195551.wav,enregistrements_homme/clean\23_pot_20260421_195552.wav,pet,pot,different,586,,,,,,,,
P_1777112065838,2026-04-25T10:14:25.839Z,25,Female,Right-handed,French,English,Native,25,7,No,Speakers,2026-04-25T10:21:53.267Z,7,homme,enregistrements_homme/clean\0_bant_20260421_195515.wav,enregistrements_homme/clean\0_bant_20260421_195515.wav,bant,bant,same,769,,,,,,,,
P_1777112065838,2026-04-25T10:14:25.839Z,25,Female,Right-handed,French,English,Native,25,7,No,Speakers,2026-04-25T10:21:53.267Z,8,femme,enregistrements_femme/clean_denoised\24_tat_20260422_181837.wav,enregistrements_femme/clean_denoised\26_tot_20260422_181840.wav,tat,tot,different,554,,,,,,,,
P_1777112065838,2026-04-25T10:14:25.839Z,25,Female,Right-handed,French,English,Native,25,7,No,Speakers,2026-04-25T10:21:53.267Z,9,homme,enregistrements_homme/clean\18_bat_20260421_195545.wav,enregistrements_homme/clean\18_bat_20260421_195545.wav,bat,bat,same,581,,,,,,,,
P_1777112065838,2026-04-25T10:14:25.839Z,25,Female,Right-handed,French,English,Native,25,7,No,Speakers,2026-04-25T10:21:53.267Z,10,femme,enregistrements_femme/clean_denoised\18_bat_20260422_181828.wav,enregistrements_femme/clean_denoised\19_bet_20260422_181829.wav,bat,bet,different,529,,,,,,,,
P_1777112065838,2026-04-25T10:14:25.839Z,25,Female,Right-handed,French,English,Native,25,7,No,Speakers,2026-04-25T10:21:53.267Z,11,homme,enregistrements_homme/clean\35_got_20260421_195610.wav,enregistrements_homme/clean\35_got_20260421_195610.wav,got,got,same,516,,,,,,,,
P_1777112065838,2026-04-25T10:14:25.839Z,25,Female,Right-handed,French,English,Native,25,7,No,Speakers,2026-04-25T10:21:53.267Z,12,femme,enregistrements_femme/clean_denoised\21_pat_20260422_181832.wav,enregistrements_femme/clean_denoised\22_pet_20260422_181834.wav,pat,pet,different,497,,,,,,,,
P_1777112065838,2026-04-25T10:14:25.839Z,25,Female,Right-handed,French,English,Native,25,7,No,Speakers,2026-04-25T10:21:53.267Z,13,femme,enregistrements_femme/clean_denoised\10_dunt_20260422_181814.wav,enregistrements_femme/clean_denoised\10_dunt_20260422_181814.wav,dunt,dunt,same,448,,,,,,,,
P_1777112065838,2026-04-25T10:14:25.839Z,25,Female,Right-handed,French,English,Native,25,7,No,Speakers,2026-04-25T10:21:53.267Z,14,homme,enregistrements_homme/clean\7_tunt_20260421_195526.wav,enregistrements_homme/clean\7_tunt_20260421_195526.wav,tunt,tunt,same,544,,,,,,,,
P_1777112065838,2026-04-25T10:14:25.839Z,25,Female,Right-handed,French,English,Native,25,7,No,Speakers,2026-04-25T10:21:53.267Z,15,homme,enregistrements_homme/clean\2_bont_20260421_195518.wav,enregistrements_homme/clean\2_bont_20260421_195518.wav,bont,bont,same,357,,,,,,,,
P_1777112065838,2026-04-25T10:14:25.839Z,25,Female,Right-handed,French,English,Native,25,7,No,Speakers,2026-04-25T10:21:53.267Z,16,homme,enregistrements_homme/clean\12_kant_20260421_195534.wav,enregistrements_homme/clean\14_kont_20260421_195538.wav,kant,kont,different,498,,,,,,,,
P_1777112065838,2026-04-25T10:14:25.839Z,25,Female,Right-handed,French,English,Native,25,7,No,Speakers,2026-04-25T10:21:53.267Z,17,femme,enregistrements_femme/clean_denoised\34_get_20260422_181853.wav,enregistrements_femme/clean_denoised\34_get_20260422_181853.wav,get,get,same,1688,,,,,,,,
P_1777112065838,2026-04-25T10:14:25.839Z,25,Female,Right-handed,French,English,Native,25,7,No,Speakers,2026-04-25T10:21:53.267Z,18,femme,enregistrements_femme/clean_denoised\2_bont_20260422_181739.wav,enregistrements_femme/clean_denoised\2_bont_20260422_181739.wav,bont,bont,same,485,,,,,,,,
P_1777112065838,2026-04-25T10:14:25.839Z,25,Female,Right-handed,French,English,Native,25,7,No,Speakers,2026-04-25T10:21:53.267Z,19,femme,enregistrements_femme/clean_denoised\14_kont_20260422_181821.wav,enregistrements_femme/clean_denoised\14_kont_20260422_181821.wav,kont,kont,same,587,,,,,,,,
P_1777112065838,2026-04-25T10:14:25.839Z,25,Female,Right-handed,French,English,Native,25,7,No,Speakers,2026-04-25T10:21:53.267Z,20,homme,enregistrements_homme/clean\11_dont_20260421_195532.wav,enregistrements_homme/clean\11_dont_20260421_195532.wav,dont,dont,same,479,,,,,,,,
P_1777112065838,2026-04-25T10:14:25.839Z,25,Female,Right-handed,French,English,Native,25,7,No,Speakers,2026-04-25T10:21:53.267Z,21,homme,enregistrements_homme/clean\24_tat_20260421_195554.wav,enregistrements_homme/clean\24_tat_20260421_195554.wav,tat,tat,same,554,,,,,,,,
P_1777112065838,2026-04-25T10:14:25.839Z,25,Female,Right-handed,French,English,Native,25,7,No,Speakers,2026-04-25T10:21:53.267Z,22,femme,enregistrements_femme/clean_denoised\33_gat_20260422_181851.wav,enregistrements_femme/clean_denoised\33_gat_20260422_181851.wav,gat,gat,same,523,,,,,,,,
P_1777112065838,2026-04-25T10:14:25.839Z,25,Female,Right-handed,French,English,Native,25,7,No,Speakers,2026-04-25T10:21:53.267Z,23,homme,enregistrements_homme/clean\21_pat_20260421_195550.wav,enregistrements_homme/clean\23_pot_20260421_195552.wav,pat,pot,different,620,,,,,,,,
P_1777112065838,2026-04-25T10:14:25.839Z,25,Female,Right-handed,French,English,Native,25,7,No,Speakers,2026-04-25T10:21:53.267Z,24,femme,enregistrements_femme/clean_denoised\0_bant_20260422_181735.wav,enregistrements_femme/clean_denoised\1_bunt_20260422_181737.wav,bant,bunt,different,1385,,,,,,,,
P_1777112065838,2026-04-25T10:14:25.839Z,25,Female,Right-handed,French,English,Native,25,7,No,Speakers,2026-04-25T10:21:53.267Z,25,femme,enregistrements_femme/clean_denoised\15_gant_20260422_181822.wav,enregistrements_femme/clean_denoised\16_gunt_20260422_181824.wav,gant,gunt,different,970,,,,,,,,
P_1777112065838,2026-04-25T10:14:25.839Z,25,Female,Right-handed,French,English,Native,25,7,No,Speakers,2026-04-25T10:21:53.267Z,26,homme,enregistrements_homme/clean\10_dunt_20260421_195531.wav,enregistrements_homme/clean\10_dunt_20260421_195531.wav,dunt,dunt,same,635,,,,,,,,
P_1777112065838,2026-04-25T10:14:25.839Z,25,Female,Right-handed,French,English,Native,25,7,No,Speakers,2026-04-25T10:21:53.267Z,27,femme,enregistrements_femme/clean_denoised\18_bat_20260422_181828.wav,enregistrements_femme/clean_denoised\18_bat_20260422_181828.wav,bat,bat,same,546,,,,,,,,
P_1777112065838,2026-04-25T10:14:25.839Z,25,Female,Right-handed,French,English,Native,25,7,No,Speakers,2026-04-25T10:21:53.267Z,28,homme,enregistrements_homme/clean\4_punt_20260421_195521.wav,enregistrements_homme/clean\5_pont_20260421_195523.wav,punt,pont,different,496,,,,,,,,
P_1777112065838,2026-04-25T10:14:25.839Z,25,Female,Right-handed,French,English,Native,25,7,No,Speakers,2026-04-25T10:21:53.267Z,29,homme,enregistrements_homme/clean\32_kot_20260421_195606.wav,enregistrements_homme/clean\32_kot_20260421_195606.wav,kot,kot,same,726,,,,,,,,
P_1777112065838,2026-04-25T10:14:25.839Z,25,Female,Right-handed,French,English,Native,25,7,No,Speakers,2026-04-25T10:21:53.267Z,30,homme,enregistrements_homme/clean\0_bant_20260421_195515.wav,enregistrements_homme/clean\1_bunt_20260421_195516.wav,bant,bunt,different,555,,,,,,,,
P_1777112065838,2026-04-25T10:14:25.839Z,25,Female,Right-handed,French,English,Native,25,7,No,Speakers,2026-04-25T10:21:53.267Z,31,femme,enregistrements_femme/clean_denoised\25_tet_20260422_181839.wav,enregistrements_femme/clean_denoised\26_tot_20260422_181840.wav,tet,tot,different,532,,,,,,,,
P_1777112065838,2026-04-25T10:14:25.839Z,25,Female,Right-handed,French,English,Native,25,7,No,Speakers,2026-04-25T10:21:53.267Z,32,homme,enregistrements_homme/clean\22_pet_20260421_195551.wav,enregistrements_homme/clean\22_pet_20260421_195551.wav,pet,pet,same,636,,,,,,,,
P_1777112065838,2026-04-25T10:14:25.839Z,25,Female,Right-handed,French,English,Native,25,7,No,Speakers,2026-04-25T10:21:53.267Z,33,femme,enregistrements_femme/clean_denoised\6_tant_20260422_181747.wav,enregistrements_femme/clean_denoised\7_tunt_20260422_181809.wav,tant,tunt,different,545,,,,,,,,
P_1777112065838,2026-04-25T10:14:25.839Z,25,Female,Right-handed,French,English,Native,25,7,No,Speakers,2026-04-25T10:21:53.267Z,34,homme,enregistrements_homme/clean\17_gont_20260421_195543.wav,enregistrements_homme/clean\17_gont_20260421_195543.wav,gont,gont,same,639,,,,,,,,
P_1777112065838,2026-04-25T10:14:25.839Z,25,Female,Right-handed,French,English,Native,25,7,No,Speakers,2026-04-25T10:21:53.267Z,35,homme,enregistrements_homme/clean\24_tat_20260421_195554.wav,enregistrements_homme/clean\25_tet_20260421_195555.wav,tat,tet,different,489,,,,,,,,
P_1777112065838,2026-04-25T10:14:25.839Z,25,Female,Right-handed,French,English,Native,25,7,No,Speakers,2026-04-25T10:21:53.267Z,36,homme,enregistrements_homme/clean\12_kant_20260421_195534.wav,enregistrements_homme/clean\13_kunt_20260421_195536.wav,kant,kunt,different,431,,,,,,,,
P_1777112065838,2026-04-25T10:14:25.839Z,25,Female,Right-handed,French,English,Native,25,7,No,Speakers,2026-04-25T10:21:53.267Z,37,femme,enregistrements_femme/clean_denoised\5_pont_20260422_181744.wav,enregistrements_femme/clean_denoised\5_pont_20260422_181744.wav,pont,pont,same,495,,,,,,,,
P_1777112065838,2026-04-25T10:14:25.839Z,25,Female,Right-handed,French,English,Native,25,7,No,Speakers,2026-04-25T10:21:53.267Z,38,femme,enregistrements_femme/clean_denoised\19_bet_20260422_181829.wav,enregistrements_femme/clean_denoised\19_bet_20260422_181829.wav,bet,bet,same,647,,,,,,,,
P_1777112065838,2026-04-25T10:14:25.839Z,25,Female,Right-handed,French,English,Native,25,7,No,Speakers,2026-04-25T10:21:53.267Z,39,femme,enregistrements_femme/clean_denoised\22_pet_20260422_181834.wav,enregistrements_femme/clean_denoised\23_pot_20260422_181836.wav,pet,pot,different,421,,,,,,,,
P_1777112065838,2026-04-25T10:14:25.839Z,25,Female,Right-handed,French,English,Native,25,7,No,Speakers,2026-04-25T10:21:53.267Z,40,femme,enregistrements_femme/clean_denoised\13_kunt_20260422_181819.wav,enregistrements_femme/clean_denoised\13_kunt_20260422_181819.wav,kunt,kunt,same,518,,,,,,,,
P_1777112065838,2026-04-25T10:14:25.839Z,25,Female,Right-handed,French,English,Native,25,7,No,Speakers,2026-04-25T10:21:53.267Z,41,femme,enregistrements_femme/clean_denoised\12_kant_20260422_181817.wav,enregistrements_femme/clean_denoised\12_kant_20260422_181817.wav,kant,kant,same,455,,,,,,,,
P_1777112065838,2026-04-25T10:14:25.839Z,25,Female,Right-handed,French,English,Native,25,7,No,Speakers,2026-04-25T10:21:53.267Z,42,homme,enregistrements_homme/clean\0_bant_20260421_195515.wav,enregistrements_homme/clean\2_bont_20260421_195518.wav,bant,bont,different,605,,,,,,,,
P_1777112065838,2026-04-25T10:14:25.839Z,25,Female,Right-handed,French,English,Native,25,7,No,Speakers,2026-04-25T10:21:53.267Z,43,homme,enregistrements_homme/clean\30_kat_20260421_195603.wav,enregistrements_homme/clean\32_kot_20260421_195606.wav,kat,kot,different,645,,,,,,,,
P_1777112065838,2026-04-25T10:14:25.839Z,25,Female,Right-handed,French,English,Native,25,7,No,Speakers,2026-04-25T10:21:53.267Z,44,homme,enregistrements_homme/clean\19_bet_20260421_195546.wav,enregistrements_homme/clean\19_bet_20260421_195546.wav,bet,bet,same,672,,,,,,,,
P_1777112065838,2026-04-25T10:14:25.839Z,25,Female,Right-handed,French,English,Native,25,7,No,Speakers,2026-04-25T10:21:53.267Z,45,femme,enregistrements_femme/clean_denoised\16_gunt_20260422_181824.wav,enregistrements_femme/clean_denoised\17_gont_20260422_181826.wav,gunt,gont,different,572,,,,,,,,
P_1777112065838,2026-04-25T10:14:25.839Z,25,Female,Right-handed,French,English,Native,25,7,No,Speakers,2026-04-25T10:21:53.267Z,46,femme,enregistrements_femme/clean_denoised\33_gat_20260422_181851.wav,enregistrements_femme/clean_denoised\34_get_20260422_181853.wav,gat,get,different,322,,,,,,,,
P_1777112065838,2026-04-25T10:14:25.839Z,25,Female,Right-handed,French,English,Native,25,7,No,Speakers,2026-04-25T10:21:53.267Z,47,femme,enregistrements_femme/clean_denoised\27_dat_20260422_181842.wav,enregistrements_femme/clean_denoised\28_det_20260422_181844.wav,dat,det,different,404,,,,,,,,
P_1777112065838,2026-04-25T10:14:25.839Z,25,Female,Right-handed,French,English,Native,25,7,No,Speakers,2026-04-25T10:21:53.267Z,48,femme,enregistrements_femme/clean_denoised\0_bant_20260422_181735.wav,enregistrements_femme/clean_denoised\0_bant_20260422_181735.wav,bant,bant,same,440,,,,,,,,
P_1777112065838,2026-04-25T10:14:25.839Z,25,Female,Right-handed,French,English,Native,25,7,No,Speakers,2026-04-25T10:21:53.267Z,49,femme,enregistrements_femme/clean_denoised\12_kant_20260422_181817.wav,enregistrements_femme/clean_denoised\13_kunt_20260422_181819.wav,kant,kunt,different,532,,,,,,,,
P_1777112065838,2026-04-25T10:14:25.839Z,25,Female,Right-handed,French,English,Native,25,7,No,Speakers,2026-04-25T10:21:53.267Z,50,homme,enregistrements_homme/clean\20_bot_20260421_195548.wav,enregistrements_homme/clean\20_bot_20260421_195548.wav,bot,bot,same,618,,,,,,,,
P_1777112065838,2026-04-25T10:14:25.839Z,25,Female,Right-handed,French,English,Native,25,7,No,Speakers,2026-04-25T10:21:53.267Z,51,femme,enregistrements_femme/clean_denoised\1_bunt_20260422_181737.wav,enregistrements_femme/clean_denoised\1_bunt_20260422_181737.wav,bunt,bunt,same,511,,,,,,,,
P_1777112065838,2026-04-25T10:14:25.839Z,25,Female,Right-handed,French,English,Native,25,7,No,Speakers,2026-04-25T10:21:53.267Z,52,femme,enregistrements_femme/clean_denoised\30_kat_20260422_181847.wav,enregistrements_femme/clean_denoised\32_kot_20260422_181850.wav,kat,kot,different,471,,,,,,,,
P_1777112065838,2026-04-25T10:14:25.839Z,25,Female,Right-handed,French,English,Native,25,7,No,Speakers,2026-04-25T10:21:53.267Z,53,femme,enregistrements_femme/clean_denoised\25_tet_20260422_181839.wav,enregistrements_femme/clean_denoised\25_tet_20260422_181839.wav,tet,tet,same,536,,,,,,,,
P_1777112065838,2026-04-25T10:14:25.839Z,25,Female,Right-handed,French,English,Native,25,7,No,Speakers,2026-04-25T10:21:53.267Z,54,homme,enregistrements_homme/clean\31_ket_20260421_195604.wav,enregistrements_homme/clean\32_kot_20260421_195606.wav,ket,kot,different,701,,,,,,,,
P_1777112065838,2026-04-25T10:14:25.839Z,25,Female,Right-handed,French,English,Native,25,7,No,Speakers,2026-04-25T10:21:53.267Z,55,homme,enregistrements_homme/clean\6_tant_20260421_195524.wav,enregistrements_homme/clean\7_tunt_20260421_195526.wav,tant,tunt,different,458,,,,,,,,
P_1777112065838,2026-04-25T10:14:25.839Z,25,Female,Right-handed,French,English,Native,25,7,No,Speakers,2026-04-25T10:21:53.267Z,56,femme,enregistrements_femme/clean_denoised\3_pant_20260422_181741.wav,enregistrements_femme/clean_denoised\4_punt_20260422_181742.wav,pant,punt,different,612,,,,,,,,
P_1777112065838,2026-04-25T10:14:25.839Z,25,Female,Right-handed,French,English,Native,25,7,No,Speakers,2026-04-25T10:21:53.267Z,57,homme,enregistrements_homme/clean\3_pant_20260421_195520.wav,enregistrements_homme/clean\3_pant_20260421_195520.wav,pant,pant,same,526,,,,,,,,
P_1777112065838,2026-04-25T10:14:25.839Z,25,Female,Right-handed,French,English,Native,25,7,No,Speakers,2026-04-25T10:21:53.267Z,58,homme,enregistrements_homme/clean\7_tunt_20260421_195526.wav,enregistrements_homme/clean\8_tont_20260421_195527.wav,tunt,tont,different,451,,,,,,,,
P_1777112065838,2026-04-25T10:14:25.839Z,25,Female,Right-handed,French,English,Native,25,7,No,Speakers,2026-04-25T10:21:53.267Z,59,homme,enregistrements_homme/clean\12_kant_20260421_195534.wav,enregistrements_homme/clean\12_kant_20260421_195534.wav,kant,kant,same,554,,,,,,,,
P_1777112065838,2026-04-25T10:14:25.839Z,25,Female,Right-handed,French,English,Native,25,7,No,Speakers,2026-04-25T10:21:53.267Z,60,homme,enregistrements_homme/clean\33_gat_20260421_195607.wav,enregistrements_homme/clean\34_get_20260421_195609.wav,gat,get,different,629,,,,,,,,
P_1777112065838,2026-04-25T10:14:25.839Z,25,Female,Right-handed,French,English,Native,25,7,No,Speakers,2026-04-25T10:21:53.267Z,61,homme,enregistrements_homme/clean\10_dunt_20260421_195531.wav,enregistrements_homme/clean\11_dont_20260421_195532.wav,dunt,dont,different,484,,,,,,,,
P_1777112065838,2026-04-25T10:14:25.839Z,25,Female,Right-handed,French,English,Native,25,7,No,Speakers,2026-04-25T10:21:53.267Z,62,homme,enregistrements_homme/clean\27_dat_20260421_195558.wav,enregistrements_homme/clean\28_det_20260421_195600.wav,dat,det,different,768,,,,,,,,
P_1777112065838,2026-04-25T10:14:25.839Z,25,Female,Right-handed,French,English,Native,25,7,No,Speakers,2026-04-25T10:21:53.267Z,63,homme,enregistrements_homme/clean\15_gant_20260421_195539.wav,enregistrements_homme/clean\15_gant_20260421_195539.wav,gant,gant,same,537,,,,,,,,
P_1777112065838,2026-04-25T10:14:25.839Z,25,Female,Right-handed,French,English,Native,25,7,No,Speakers,2026-04-25T10:21:53.267Z,64,femme,enregistrements_femme/clean_denoised\27_dat_20260422_181842.wav,enregistrements_femme/clean_denoised\27_dat_20260422_181842.wav,dat,dat,same,505,,,,,,,,
